workerid,proliferate.condition,ID,Order,accuracy,browser,browser_version,duration,failed_audio,failed_images,failed_video,fullscreen,gender,height,internal_node_id,microphone,mobile,order,os,question_order,response,rt,speech_rate,stimulus,success,talker,time_elapsed,timeout,transcript,trial_index,trial_type,vsync_rate,webaudio,webcam,width,error
8,pilot,,,,,,,[],[],[],,,,0.0-0.0,,,,,,,,,,True,,624,False,,0,preload,,,,,
8,pilot,,,,,,,[],[],[],,,,0.0-1.0,,,,,,,,,,True,,2938,False,,1,preload,,,,,
8,pilot,,,,chrome,136.0.0,,,,,True,,898,0.0-2.0,True,False,,Mac OS,,,,,,,,4189,,,2,browser-check,60.29,True,True,1792,
8,pilot,,,,,,,,,,,,,0.0-3.0,,,,,,0,61158,,"
        <div class=""text"" id=""instruction"">
            <img src=""../images/stanford_logo.png"" alt=""stanford logo"" width=""180"" height=""80"">
            <p><b>Only complete this study if you are a Massachussets resident who is 18 years old or older.</b></p>
            <p>Please share this link with other people you know who live in the area, but <u>do not participate in this study more than once</u>.
            <BR>You will not be compensated more than once.</p> 
            <p>In this experiment, you will be listening to pairs of audio clips.</p>
            <p>Each pair of audio clips will be played once in consecutive order. Your task is to decide which one of the clips sounds like the speaker was born in Boston.</p>
            <p>Please ensure that you use earphones or headphones for the duration of this experiment.</p>
            <p>This experiment should be completed on a <b><u>desktop or laptop</u></b> using the <b><u>Google Chrome browser</u></b>.</p>
            <p>The experiment will take approximately 40 minutes. You will be compensated $15 for your time.</p>
        </div>
      ",,,65602,,,3,html-button-response,,,,,
8,pilot,,,,,,,,,,,,,0.0-4.0,,,,,,0,19401,,"
        <div class=""text"" id=""irb"">
            
                <h3>Nonmedical Human Participants Consent Form and Waiver of Documentation</h3>
                <p>
                    <strong>STUDY TITLE:</strong> Language Production and Comprehension Studies
                </p>
                <p><strong>PROTOCOL DIRECTOR:</strong> Meghan Sumner</p>
                <p>		
                    <strong>DESCRIPTION:</strong> We invite you to participate in a research study on language production and comprehension. In this experiment, you will complete a linguistic task online such as reading sentences or words, naming pictures or describing scenes, making up sentences of your own, or participating in a simple language game.
                    </p>
                <p>		
                    <strong>RISKS AND BENEFITS:</strong> There are no known risks, costs, or discomforts in this study and this judgment is based on a large body of experience with the same or similar procedures with people of similar ages, sex, origins, etc. We cannot and do not guarantee or promise that you will receive any benefits from this study. You will help us to understand how people recognize and perceive auditory stimuli.
                </p>	
                <p>	
                    <strong>TIME INVOLVEMENT:</strong> Your participation in this experiment will take less than one hour.
                </p>
                <p>	
                    <strong>PAYMENTS:</strong> You will be paid for your participation at the posted rate, consisted with online payment standards.
                    </p>
                <p>		
                    <strong>SUBJECT'S RIGHTS:</strong> If you have read this form and have decided to participate in this project, please understand your participation is voluntary and you have the right to withdraw your consent or discontinue participation at any time without penalty or loss of benefits to which you are otherwise entitled. You have the right to refuse to answer particular questions. Your individual privacy will be maintained in all published and written data resulting from the study.
                </p>
                <p>			
                    <strong>CONTACT INFORMATION:</strong><BR>
                    Questions, Concerns, or Complaints: If you have any questions, concerns or complaints about this research study, its procedures, risks and benefits, please contact Prof. Meghan Sumner at (650) 723-4284.
                </p>	
                <p>
                    Independent Contact: If you are not satisfied with how this study is being conducted, or if you have any concerns, complaints, or general questions about the research or your rights as a participant, please contact the Stanford Institutional Review Board (IRB) to speak to someone independent of the research team at (650)-723-2480 or toll free at 1-866-680-2906. You can also write to the Stanford IRB, Stanford University, Stanford, CA 94305-5401 or email irbnonmed@stanford.edu.
                </p>	
                <p>	
                    <strong>WAIVER OF DOCUMENTATION:</strong><BR>
                    If you agree to participate in this research, please continue to begin the study. 
                </p>	
                <p style=""font-size: 80%"">
                Approval Date: June, 30, 2021<BR>
                Expiration Date: Does Not Expire
                </p>
                
        </div>
      ",,,85256,,,4,html-button-response,,,,,
8,pilot,,,,,,,,,,,,,0.0-5.0,,,,,,['friends'],,,,,,94031,,,5,cloze,,,,,
8,pilot,,,,,,,,,,,,,0.0-6.0,,,,,,0,27770,,"
  <center>
        <p>You will now begin the practice trials.</p>
        <p>In each trial, two audio clips will play one after another. You will hear a variety of sentences and phrases spoken by different talkers.</p>
        <p>Each audio clip will only be played once and you will not be able to replay them.</p>
        <p><strong>Your task is to decide which clip sounds more like the speaker was born in Boston.</strong></p>
        <p><strong>These clips come from a range of different people so they might not all sound like your typical Bostonian, but just make your best guess as quickly as possible.</strong></p>
        <p>Please place your left index finger on the ""S"" key and your right index finger on the ""L"" key.</p>
        <p><img src=""../procedures/keyboard.png"" width=""500"" style=""margin-top:-10px""></p>
        <p>If the <strong>first clip</strong> sounds more like someone who was born in Boston, please <strong>press S</strong>.</p>
        <p>If the <strong>second clip</strong> sounds more like someone who was born in Boston, please <strong>press L</strong>.</p>
        <p><b>Respond as quickly as possible when both clips have finished playing.</b></p>
        <p>This is a timed task. If you do not respond in time, the next question will appear automatically.</p>
        <p><b>Please answer as quickly and accurately as possible.</b></p> 
  </center>
        ",,,122054,,,6,html-button-response,,,,,
8,pilot,UNKNOWN,,,,,0,,,,,UNKNOWN,,0.0-7.0,,,0,,,,,0,../practice/trial1_clip1.WAV,,UNKNOWN,126309,,UNKNOWN,7,audio-keyboard-response,,,,,
8,pilot,UNKNOWN,,,,,0,,,,,UNKNOWN,,0.0-8.0,,,0,,,,,0,../practice/trial1_clip2.WAV,,UNKNOWN,130312,,UNKNOWN,8,audio-keyboard-response,,,,,
8,pilot,,1,,,,,,,,,,,0.0-9.0,,,,,,s,523,,"
      <center>
        <div id=""clip1"" class=""visual"">Clip 1<p>Press ""S""</p></div>
        <div id=""clip2"" class=""visual"">Clip 2<p>Press ""L""</p></div>
      </center>
      <p style=""text-align:center"">Which clip sounds more like someone who was <b>born in Boston?</b></p>
    ",,,132315,,,9,html-keyboard-response,,,,,
8,pilot,UNKNOWN,,,,,0,,,,,UNKNOWN,,0.0-10.0,,,0,,,,,0,../practice/trial2_clip1.WAV,,UNKNOWN,136318,,UNKNOWN,10,audio-keyboard-response,,,,,
8,pilot,UNKNOWN,,,,,0,,,,,UNKNOWN,,0.0-11.0,,,0,,,,,0,../practice/trial2_clip2.WAV,,UNKNOWN,140321,,UNKNOWN,11,audio-keyboard-response,,,,,
8,pilot,,2,,,,,,,,,,,0.0-12.0,,,,,,,,,"
      <center>
        <div id=""clip1"" class=""visual"">Clip 1<p>Press ""S""</p></div>
        <div id=""clip2"" class=""visual"">Clip 2<p>Press ""L""</p></div>
      </center>
      <p style=""text-align:center"">Which clip sounds more like someone who was <b>born in Boston?</b></p>
    ",,,142321,,,12,html-keyboard-response,,,,,
8,pilot,UNKNOWN,,,,,0,,,,,UNKNOWN,,0.0-13.0,,,0,,,,,0,../practice/trial3_clip1.WAV,,UNKNOWN,146324,,UNKNOWN,13,audio-keyboard-response,,,,,
8,pilot,UNKNOWN,,,,,0,,,,,UNKNOWN,,0.0-14.0,,,0,,,,,0,../practice/trial3_clip2.WAV,,UNKNOWN,150327,,UNKNOWN,14,audio-keyboard-response,,,,,
8,pilot,,3,,,,,,,,,,,0.0-15.0,,,,,,l,138,,"
      <center>
        <div id=""clip1"" class=""visual"">Clip 1<p>Press ""S""</p></div>
        <div id=""clip2"" class=""visual"">Clip 2<p>Press ""L""</p></div>
      </center>
      <p style=""text-align:center"">Which clip sounds more like someone who was <b>born in Boston?</b></p>
    ",,,152330,,,15,html-keyboard-response,,,,,
8,pilot,,,,,,,,,,,,,0.0-16.0,,,,,,0,5681,,"
  <center>
        <p>You will now begin the experiment.</p>
        <p>In each trial, two audio clips will play one after another. You will hear a variety of sentences and phrases spoken by different talkers.</p>
        <p>Each audio clip will only be played once and you will not be able to replay them.</p>
        <p><strong>Your task is to decide which clip sounds more like someone who was born in Boston.</strong></p>
        <p><strong>These clips come from a range of different people so they might not all sound like your typical Bostonian, but please do your best to respond as quickly as possible.</strong></p>
        <p>Please place your left index finger on the ""S"" key and your right index finger on the ""L"" key.</p>
        <p><img src=""../procedures/keyboard.png"" width=""500"" style=""margin-top:-10px""></p>
        <p>If the <strong>first clip</strong> sounds more like someone who was born in Boston, please <strong>press S</strong>.</p>
        <p>If the <strong>second clip</strong> sounds more like someone who was born in Boston, please <strong>press L</strong>.</p>
        <p><b>Respond as quickly as possible when both clips have finished playing.</b></p>
        <p>This is a timed task. If you do not respond in time, the next question will appear automatically.</p>
        <p><b>Please answer as quickly and accurately as possible.</b></p> 
  </center>
        ",,,158012,,,16,html-button-response,,,,,
8,pilot,F1_02,,,,,2.456333,,,,,female,,0.0-17.0,,,1,,,,,4.419191919,../audio/F1_02.WAV,,F1,161221,,I didn't mean it that way and,17,audio-keyboard-response,,,,,
8,pilot,M2_03,,,,,0.928833,,,,,male,,0.0-18.0,,,2,,,,,0.928833,../audio/M2_03.WAV,,M2,162152,,After this the moment the podcast end we are heading there,18,audio-keyboard-response,,,,,
8,pilot,,1,,,,,,,,,,,0.0-19.0,,,,,,s,1187,,"
      <center>
        <div id=""clip1"" class=""visual"">Clip 1<p>Press ""S""</p></div>
        <div id=""clip2"" class=""visual"">Clip 2<p>Press ""L""</p></div>
      </center>
      <p style=""text-align:center"">Which clip sounds more like someone who was <b>born in Boston?</b></p>
    ",,,164153,,,19,html-keyboard-response,,,,,
8,pilot,F5_04,,,,,0.83549,,,,,female,,0.0-20.0,,,1,,,,,0.83549,../audio/F5_04.WAV,,F5,165491,,As long as you tell me that we are still together,20,audio-keyboard-response,,,,,
8,pilot,F4_01,,,,,1.835479,,,,,female,,0.0-21.0,,,2,,,,,1.835479,../audio/F4_01.WAV,,F4,167329,,Are on the same level I think that's ok,21,audio-keyboard-response,,,,,
8,pilot,,2,,,,,,,,,,,0.0-22.0,,,,,,s,591,,"
      <center>
        <div id=""clip1"" class=""visual"">Clip 1<p>Press ""S""</p></div>
        <div id=""clip2"" class=""visual"">Clip 2<p>Press ""L""</p></div>
      </center>
      <p style=""text-align:center"">Which clip sounds more like someone who was <b>born in Boston?</b></p>
    ",,,169331,,,22,html-keyboard-response,,,,,
8,pilot,F2_01,,,,,3.200677,,,,,female,,0.0-23.0,,,1,,,,,4.303388919,../audio/F2_01.WAV,,F2,173033,,I guess with every small step it helps,23,audio-keyboard-response,,,,,
8,pilot,M4_01,,,,,2.112052,,,,,male,,0.0-24.0,,,2,,,,,4.096262161,../audio/M4_01.WAV,,M4,175147,,Did you manage to fulfil them right now,24,audio-keyboard-response,,,,,
8,pilot,,3,,,,,,,,,,,0.0-25.0,,,,,,s,871,,"
      <center>
        <div id=""clip1"" class=""visual"">Clip 1<p>Press ""S""</p></div>
        <div id=""clip2"" class=""visual"">Clip 2<p>Press ""L""</p></div>
      </center>
      <p style=""text-align:center"">Which clip sounds more like someone who was <b>born in Boston?</b></p>
    ",,,177149,,,25,html-keyboard-response,,,,,
8,pilot,M4_02,,,,,1.785187,,,,,male,,0.0-26.0,,,1,,,,,4.104669061,../audio/M4_02.WAV,,M4,179436,,I took the ATM card and I didn't,26,audio-keyboard-response,,,,,
8,pilot,M5_03,,,,,1.118844,,,,,male,,0.0-27.0,,,2,,,,,4.603580563,../audio/M5_03.WAV,,M5,180555,,They say that it's not a good thing to,27,audio-keyboard-response,,,,,
8,pilot,,4,,,,,,,,,,,0.0-28.0,,,,,,s,479,,"
      <center>
        <div id=""clip1"" class=""visual"">Clip 1<p>Press ""S""</p></div>
        <div id=""clip2"" class=""visual"">Clip 2<p>Press ""L""</p></div>
      </center>
      <p style=""text-align:center"">Which clip sounds more like someone who was <b>born in Boston?</b></p>
    ",,,182558,,,28,html-keyboard-response,,,,,
8,pilot,F2_03,,,,,1.372927,,,,,female,,0.0-29.0,,,1,,,,,5.323505324,../audio/F2_03.WAV,,F2,184432,,If let's say like you plug in your stuff into the switch right,29,audio-keyboard-response,,,,,
8,pilot,F3_04,,,,,1.651802,,,,,female,,0.0-30.0,,,2,,,,,4.810583283,../audio/F3_04.WAV,,F3,186085,,It can go up to like four times,30,audio-keyboard-response,,,,,
8,pilot,,5,,,,,,,,,,,0.0-31.0,,,,,,l,142,,"
      <center>
        <div id=""clip1"" class=""visual"">Clip 1<p>Press ""S""</p></div>
        <div id=""clip2"" class=""visual"">Clip 2<p>Press ""L""</p></div>
      </center>
      <p style=""text-align:center"">Which clip sounds more like someone who was <b>born in Boston?</b></p>
    ",,,188086,,,31,html-keyboard-response,,,,,
8,pilot,M3_02,,,,,1.70975,,,,,male,,0.0-32.0,,,1,,,,,3.775167785,../audio/M3_02.WAV,,M3,190298,,That's what I am first and foremost a historian,32,audio-keyboard-response,,,,,
8,pilot,M1_04,,,,,0.999906,,,,,male,,0.0-33.0,,,2,,,,,3.530450132,../audio/M1_04.WAV,,M1,191299,,She travelled to Hong Kong with her family,33,audio-keyboard-response,,,,,
8,pilot,,6,,,,,,,,,,,0.0-34.0,,,,,,s,553,,"
      <center>
        <div id=""clip1"" class=""visual"">Clip 1<p>Press ""S""</p></div>
        <div id=""clip2"" class=""visual"">Clip 2<p>Press ""L""</p></div>
      </center>
      <p style=""text-align:center"">Which clip sounds more like someone who was <b>born in Boston?</b></p>
    ",,,193301,,,34,html-keyboard-response,,,,,
8,pilot,M1_01,,,,,1.480896,,,,,male,,0.0-35.0,,,1,,,,,5.043558001,../audio/M1_01.WAV,,M1,195284,,I said what is this,35,audio-keyboard-response,,,,,
8,pilot,F3_03,,,,,1.738271,,,,,female,,0.0-36.0,,,2,,,,,4.746835443,../audio/F3_03.WAV,,F3,197024,,A lot of people put their stuff up there,36,audio-keyboard-response,,,,,
8,pilot,,7,,,,,,,,,,,0.0-37.0,,,,,,l,696,,"
      <center>
        <div id=""clip1"" class=""visual"">Clip 1<p>Press ""S""</p></div>
        <div id=""clip2"" class=""visual"">Clip 2<p>Press ""L""</p></div>
      </center>
      <p style=""text-align:center"">Which clip sounds more like someone who was <b>born in Boston?</b></p>
    ",,,199026,,,37,html-keyboard-response,,,,,
8,pilot,F1_04,,,,,3.175875,,,,,female,,0.0-38.0,,,1,,,,,3.68852459,../audio/F1_04.WAV,,F1,202703,,Believe that you cannot feel anything while you're doing,38,audio-keyboard-response,,,,,
8,pilot,F4_02,,,,,2.916635,,,,,female,,0.0-39.0,,,2,,,,,2.916635,../audio/F4_02.WAV,,F4,205621,,Really really like trying to show support to the person,39,audio-keyboard-response,,,,,
8,pilot,,8,,,,,,,,,,,0.0-40.0,,,,,,s,387,,"
      <center>
        <div id=""clip1"" class=""visual"">Clip 1<p>Press ""S""</p></div>
        <div id=""clip2"" class=""visual"">Clip 2<p>Press ""L""</p></div>
      </center>
      <p style=""text-align:center"">Which clip sounds more like someone who was <b>born in Boston?</b></p>
    ",,,207623,,,40,html-keyboard-response,,,,,
8,pilot,F5_03,,,,,3.162094,,,,,female,,0.0-41.0,,,1,,,,,3.162094,../audio/F5_03.WAV,,F5,211287,,It was just through message,41,audio-keyboard-response,,,,,
8,pilot,M5_04,,,,,2.679688,,,,,male,,0.0-42.0,,,2,,,,,3.347680536,../audio/M5_04.WAV,,M5,213968,,Just talking about how why some people,42,audio-keyboard-response,,,,,
8,pilot,,9,,,,,,,,,,,0.0-43.0,,,,,,l,680,,"
      <center>
        <div id=""clip1"" class=""visual"">Clip 1<p>Press ""S""</p></div>
        <div id=""clip2"" class=""visual"">Clip 2<p>Press ""L""</p></div>
      </center>
      <p style=""text-align:center"">Which clip sounds more like someone who was <b>born in Boston?</b></p>
    ",,,215971,,,43,html-keyboard-response,,,,,
8,pilot,M3_04,,,,,2.564635,,,,,male,,0.0-44.0,,,1,,,,,3.351955307,../audio/M3_04.WAV,,M3,219037,,I hurt my knee quite badly,44,audio-keyboard-response,,,,,
8,pilot,M2_02,,,,,1.039885,,,,,male,,0.0-45.0,,,2,,,,,1.039885,../audio/M2_02.WAV,,M2,220078,,When did you first start doing content,45,audio-keyboard-response,,,,,
8,pilot,,10,,,,,,,,,,,0.0-46.0,,,,,,l,1324,,"
      <center>
        <div id=""clip1"" class=""visual"">Clip 1<p>Press ""S""</p></div>
        <div id=""clip2"" class=""visual"">Clip 2<p>Press ""L""</p></div>
      </center>
      <p style=""text-align:center"">Which clip sounds more like someone who was <b>born in Boston?</b></p>
    ",,,222080,,,46,html-keyboard-response,,,,,
8,pilot,F2_04,,,,,4.716052,,,,,female,,0.0-47.0,,,1,,,,,2.372479241,../audio/F2_04.WAV,,F2,227299,,Probably some household goods,47,audio-keyboard-response,,,,,
8,pilot,F1_01,,,,,2.72926,,,,,female,,0.0-48.0,,,2,,,,,4.312203536,../audio/F1_01.WAV,,F1,230030,,That person was asking me a question and I replied,48,audio-keyboard-response,,,,,
8,pilot,,11,,,,,,,,,,,0.0-49.0,,,,,,l,935,,"
      <center>
        <div id=""clip1"" class=""visual"">Clip 1<p>Press ""S""</p></div>
        <div id=""clip2"" class=""visual"">Clip 2<p>Press ""L""</p></div>
      </center>
      <p style=""text-align:center"">Which clip sounds more like someone who was <b>born in Boston?</b></p>
    ",,,232032,,,49,html-keyboard-response,,,,,
8,pilot,M1_03,,,,,1.220375,,,,,male,,0.0-50.0,,,1,,,,,5.087881591,../audio/M1_03.WAV,,M1,233755,,It was not terrible because at that point of my life,50,audio-keyboard-response,,,,,
8,pilot,F5_02,,,,,2.006958,,,,,female,,0.0-51.0,,,2,,,,,2.006958,../audio/F5_02.WAV,,F5,235763,,I don't want to believe this,51,audio-keyboard-response,,,,,
8,pilot,,12,,,,,,,,,,,0.0-52.0,,,,,,,,,"
      <center>
        <div id=""clip1"" class=""visual"">Clip 1<p>Press ""S""</p></div>
        <div id=""clip2"" class=""visual"">Clip 2<p>Press ""L""</p></div>
      </center>
      <p style=""text-align:center"">Which clip sounds more like someone who was <b>born in Boston?</b></p>
    ",,,237766,,,52,html-keyboard-response,,,,,
8,pilot,F4_04,,,,,1.514,,,,,female,,0.0-53.0,,,1,,,,,0.719448,../audio/F4_04.WAV,,F4,239782,,Slowly put the fish in the water,53,audio-keyboard-response,,,,,
8,pilot,M4_04,,,,,2.538281,,,,,male,,0.0-54.0,,,2,,,,,3.990877993,../audio/M4_04.WAV,,M4,242324,,I message him in IG with my,54,audio-keyboard-response,,,,,
8,pilot,,13,,,,,,,,,,,0.0-55.0,,,,,,,,,"
      <center>
        <div id=""clip1"" class=""visual"">Clip 1<p>Press ""S""</p></div>
        <div id=""clip2"" class=""visual"">Clip 2<p>Press ""L""</p></div>
      </center>
      <p style=""text-align:center"">Which clip sounds more like someone who was <b>born in Boston?</b></p>
    ",,,244326,,,55,html-keyboard-response,,,,,
8,pilot,M2_04,,,,,2.180729,,,,,male,,0.0-56.0,,,1,,,,,2.180729,../audio/M2_04.WAV,,M2,247007,,Then I told them you know what never mind I'm not interested any more,56,audio-keyboard-response,,,,,
8,pilot,F1_03,,,,,2.034542,,,,,female,,0.0-57.0,,,2,,,,,2.999143102,../audio/F1_03.WAV,,F1,249044,,Certificate of sorts right a Youtube plaque,57,audio-keyboard-response,,,,,
8,pilot,,14,,,,,,,,,,,0.0-58.0,,,,,,l,481,,"
      <center>
        <div id=""clip1"" class=""visual"">Clip 1<p>Press ""S""</p></div>
        <div id=""clip2"" class=""visual"">Clip 2<p>Press ""L""</p></div>
      </center>
      <p style=""text-align:center"">Which clip sounds more like someone who was <b>born in Boston?</b></p>
    ",,,251046,,,58,html-keyboard-response,,,,,
8,pilot,F5_01,,,,,1.144573,,,,,female,,0.0-59.0,,,1,,,,,1.144573,../audio/F5_01.WAV,,F5,252692,,But people have been telling me things about Junior,59,audio-keyboard-response,,,,,
8,pilot,F3_01,,,,,4.267563,,,,,female,,0.0-60.0,,,2,,,,,3.688092729,../audio/F3_01.WAV,,F3,256962,,Regular products may cost like eleven dollars,60,audio-keyboard-response,,,,,
8,pilot,,15,,,,,,,,,,,0.0-61.0,,,,,,s,378,,"
      <center>
        <div id=""clip1"" class=""visual"">Clip 1<p>Press ""S""</p></div>
        <div id=""clip2"" class=""visual"">Clip 2<p>Press ""L""</p></div>
      </center>
      <p style=""text-align:center"">Which clip sounds more like someone who was <b>born in Boston?</b></p>
    ",,,258965,,,61,html-keyboard-response,,,,,
8,pilot,M3_03,,,,,1.483458,,,,,male,,0.0-62.0,,,1,,,,,3.134796238,../audio/M3_03.WAV,,M3,260949,,But I've left that life behind me,62,audio-keyboard-response,,,,,
8,pilot,M2_01,,,,,3.0,,,,,male,,0.0-63.0,,,2,,,,,3.02699,../audio/M2_01.WAV,,M2,263951,,I think the dinner how much was it,63,audio-keyboard-response,,,,,
8,pilot,,16,,,,,,,,,,,0.0-64.0,,,,,,l,650,,"
      <center>
        <div id=""clip1"" class=""visual"">Clip 1<p>Press ""S""</p></div>
        <div id=""clip2"" class=""visual"">Clip 2<p>Press ""L""</p></div>
      </center>
      <p style=""text-align:center"">Which clip sounds more like someone who was <b>born in Boston?</b></p>
    ",,,265953,,,64,html-keyboard-response,,,,,
8,pilot,F4_03,,,,,3.670938,,,,,female,,0.0-65.0,,,1,,,,,3.670938,../audio/F4_03.WAV,,F4,270125,,I don't think they catch feelings but they just become more attached to them,65,audio-keyboard-response,,,,,
8,pilot,F3_02,,,,,4.438833,,,,,female,,0.0-66.0,,,2,,,,,4.833040422,../audio/F3_02.WAV,,F3,274565,,I mean honestly I'll say first it's so hard for us,66,audio-keyboard-response,,,,,
8,pilot,,17,,,,,,,,,,,0.0-67.0,,,,,,s,385,,"
      <center>
        <div id=""clip1"" class=""visual"">Clip 1<p>Press ""S""</p></div>
        <div id=""clip2"" class=""visual"">Clip 2<p>Press ""L""</p></div>
      </center>
      <p style=""text-align:center"">Which clip sounds more like someone who was <b>born in Boston?</b></p>
    ",,,276568,,,67,html-keyboard-response,,,,,
8,pilot,M3_01,,,,,1.659469,,,,,male,,0.0-68.0,,,1,,,,,2.410606669,../audio/M3_01.WAV,,M3,278729,,I self-identify as a historian,68,audio-keyboard-response,,,,,
8,pilot,M1_02,,,,,1.508312,,,,,male,,0.0-69.0,,,2,,,,,4.539559014,../audio/M1_02.WAV,,M1,280240,,So you you don't have to like,69,audio-keyboard-response,,,,,
8,pilot,,18,,,,,,,,,,,0.0-70.0,,,,,,l,135,,"
      <center>
        <div id=""clip1"" class=""visual"">Clip 1<p>Press ""S""</p></div>
        <div id=""clip2"" class=""visual"">Clip 2<p>Press ""L""</p></div>
      </center>
      <p style=""text-align:center"">Which clip sounds more like someone who was <b>born in Boston?</b></p>
    ",,,282242,,,70,html-keyboard-response,,,,,
8,pilot,M4_03,,,,,2.137188,,,,,male,,0.0-71.0,,,1,,,,,3.298153034,../audio/M4_03.WAV,,M4,284882,,Be a son to him,71,audio-keyboard-response,,,,,
8,pilot,F2_02,,,,,2.902938,,,,,female,,0.0-72.0,,,2,,,,,4.172461752,../audio/F2_02.WAV,,F2,287785,,Buy each other roses and give each other cards,72,audio-keyboard-response,,,,,
8,pilot,,19,,,,,,,,,,,0.0-73.0,,,,,,l,314,,"
      <center>
        <div id=""clip1"" class=""visual"">Clip 1<p>Press ""S""</p></div>
        <div id=""clip2"" class=""visual"">Clip 2<p>Press ""L""</p></div>
      </center>
      <p style=""text-align:center"">Which clip sounds more like someone who was <b>born in Boston?</b></p>
    ",,,289787,,,73,html-keyboard-response,,,,,
8,pilot,M5_02,,,,,1.560854,,,,,male,,0.0-74.0,,,1,,,,,3.846153846,../audio/M5_02.WAV,,M5,291849,,You walk out of the situation rather than,74,audio-keyboard-response,,,,,
8,pilot,M5_01,,,,,2.002865,,,,,male,,0.0-75.0,,,2,,,,,3.53713997,../audio/M5_01.WAV,,M5,293853,,It's better to be factual about it,75,audio-keyboard-response,,,,,
8,pilot,,20,,,,,,,,,,,0.0-76.0,,,,,,s,805,,"
      <center>
        <div id=""clip1"" class=""visual"">Clip 1<p>Press ""S""</p></div>
        <div id=""clip2"" class=""visual"">Clip 2<p>Press ""L""</p></div>
      </center>
      <p style=""text-align:center"">Which clip sounds more like someone who was <b>born in Boston?</b></p>
    ",,,295855,,,76,html-keyboard-response,,,,,
8,pilot,M2_02,,,,,1.039885,,,,,male,,0.0-77.0,,,1,,,,,1.039885,../audio/M2_02.WAV,,M2,297397,,When did you first start doing content,77,audio-keyboard-response,,,,,
8,pilot,M5_01,,,,,2.002865,,,,,male,,0.0-78.0,,,2,,,,,3.53713997,../audio/M5_01.WAV,,M5,299401,,It's better to be factual about it,78,audio-keyboard-response,,,,,
8,pilot,,1,,,,,,,,,,,0.0-79.0,,,,,,,,,"
      <center>
        <div id=""clip1"" class=""visual"">Clip 1<p>Press ""S""</p></div>
        <div id=""clip2"" class=""visual"">Clip 2<p>Press ""L""</p></div>
      </center>
      <p style=""text-align:center"">Which clip sounds more like someone who was <b>born in Boston?</b></p>
    ",,,301403,,,79,html-keyboard-response,,,,,
8,pilot,M4_04,,,,,2.538281,,,,,male,,0.0-80.0,,,1,,,,,3.990877993,../audio/M4_04.WAV,,M4,304444,,I message him in IG with my,80,audio-keyboard-response,,,,,
8,pilot,M5_03,,,,,1.118844,,,,,male,,0.0-81.0,,,2,,,,,4.603580563,../audio/M5_03.WAV,,M5,305564,,They say that it's not a good thing to,81,audio-keyboard-response,,,,,
8,pilot,,2,,,,,,,,,,,0.0-82.0,,,,,,l,241,,"
      <center>
        <div id=""clip1"" class=""visual"">Clip 1<p>Press ""S""</p></div>
        <div id=""clip2"" class=""visual"">Clip 2<p>Press ""L""</p></div>
      </center>
      <p style=""text-align:center"">Which clip sounds more like someone who was <b>born in Boston?</b></p>
    ",,,307567,,,82,html-keyboard-response,,,,,
8,pilot,F4_03,,,,,3.670938,,,,,female,,0.0-83.0,,,1,,,,,3.670938,../audio/F4_03.WAV,,F4,311739,,I don't think they catch feelings but they just become more attached to them,83,audio-keyboard-response,,,,,
8,pilot,M4_01,,,,,2.112052,,,,,male,,0.0-84.0,,,2,,,,,4.096262161,../audio/M4_01.WAV,,M4,313853,,Did you manage to fulfil them right now,84,audio-keyboard-response,,,,,
8,pilot,,3,,,,,,,,,,,0.0-85.0,,,,,,s,648,,"
      <center>
        <div id=""clip1"" class=""visual"">Clip 1<p>Press ""S""</p></div>
        <div id=""clip2"" class=""visual"">Clip 2<p>Press ""L""</p></div>
      </center>
      <p style=""text-align:center"">Which clip sounds more like someone who was <b>born in Boston?</b></p>
    ",,,315856,,,85,html-keyboard-response,,,,,
8,pilot,F3_02,,,,,4.438833,,,,,female,,0.0-86.0,,,1,,,,,4.833040422,../audio/F3_02.WAV,,F3,320796,,I mean honestly I'll say first it's so hard for us,86,audio-keyboard-response,,,,,
8,pilot,M5_04,,,,,2.679688,,,,,male,,0.0-87.0,,,2,,,,,3.347680536,../audio/M5_04.WAV,,M5,323478,,Just talking about how why some people,87,audio-keyboard-response,,,,,
8,pilot,,4,,,,,,,,,,,0.0-88.0,,,,,,l,578,,"
      <center>
        <div id=""clip1"" class=""visual"">Clip 1<p>Press ""S""</p></div>
        <div id=""clip2"" class=""visual"">Clip 2<p>Press ""L""</p></div>
      </center>
      <p style=""text-align:center"">Which clip sounds more like someone who was <b>born in Boston?</b></p>
    ",,,325481,,,88,html-keyboard-response,,,,,
8,pilot,M1_01,,,,,1.480896,,,,,male,,0.0-89.0,,,1,,,,,5.043558001,../audio/M1_01.WAV,,M1,327464,,I said what is this,89,audio-keyboard-response,,,,,
8,pilot,M2_03,,,,,0.928833,,,,,male,,0.0-90.0,,,2,,,,,0.928833,../audio/M2_03.WAV,,M2,328394,,After this the moment the podcast end we are heading there,90,audio-keyboard-response,,,,,
8,pilot,,5,,,,,,,,,,,0.0-91.0,,,,,,s,629,,"
      <center>
        <div id=""clip1"" class=""visual"">Clip 1<p>Press ""S""</p></div>
        <div id=""clip2"" class=""visual"">Clip 2<p>Press ""L""</p></div>
      </center>
      <p style=""text-align:center"">Which clip sounds more like someone who was <b>born in Boston?</b></p>
    ",,,330396,,,91,html-keyboard-response,,,,,
8,pilot,M4_03,,,,,2.137188,,,,,male,,0.0-92.0,,,1,,,,,3.298153034,../audio/M4_03.WAV,,M4,333035,,Be a son to him,92,audio-keyboard-response,,,,,
8,pilot,F1_02,,,,,2.456333,,,,,female,,0.0-93.0,,,2,,,,,4.419191919,../audio/F1_02.WAV,,F1,335493,,I didn't mean it that way and,93,audio-keyboard-response,,,,,
8,pilot,,6,,,,,,,,,,,0.0-94.0,,,,,,l,57,,"
      <center>
        <div id=""clip1"" class=""visual"">Clip 1<p>Press ""S""</p></div>
        <div id=""clip2"" class=""visual"">Clip 2<p>Press ""L""</p></div>
      </center>
      <p style=""text-align:center"">Which clip sounds more like someone who was <b>born in Boston?</b></p>
    ",,,337496,,,94,html-keyboard-response,,,,,
8,pilot,M1_04,,,,,0.999906,,,,,male,,0.0-95.0,,,1,,,,,3.530450132,../audio/M1_04.WAV,,M1,338997,,She travelled to Hong Kong with her family,95,audio-keyboard-response,,,,,
8,pilot,F5_02,,,,,2.006958,,,,,female,,0.0-96.0,,,2,,,,,2.006958,../audio/F5_02.WAV,,F5,341004,,I don't want to believe this,96,audio-keyboard-response,,,,,
8,pilot,,7,,,,,,,,,,,0.0-97.0,,,,,,l,989,,"
      <center>
        <div id=""clip1"" class=""visual"">Clip 1<p>Press ""S""</p></div>
        <div id=""clip2"" class=""visual"">Clip 2<p>Press ""L""</p></div>
      </center>
      <p style=""text-align:center"">Which clip sounds more like someone who was <b>born in Boston?</b></p>
    ",,,343006,,,97,html-keyboard-response,,,,,
8,pilot,F2_04,,,,,4.716052,,,,,female,,0.0-98.0,,,1,,,,,2.372479241,../audio/F2_04.WAV,,F2,348225,,Probably some household goods,98,audio-keyboard-response,,,,,
8,pilot,F4_01,,,,,1.835479,,,,,female,,0.0-99.0,,,2,,,,,1.835479,../audio/F4_01.WAV,,F4,350063,,Are on the same level I think that's ok,99,audio-keyboard-response,,,,,
8,pilot,,8,,,,,,,,,,,0.0-100.0,,,,,,l,156,,"
      <center>
        <div id=""clip1"" class=""visual"">Clip 1<p>Press ""S""</p></div>
        <div id=""clip2"" class=""visual"">Clip 2<p>Press ""L""</p></div>
      </center>
      <p style=""text-align:center"">Which clip sounds more like someone who was <b>born in Boston?</b></p>
    ",,,352066,,,100,html-keyboard-response,,,,,
8,pilot,M2_04,,,,,2.180729,,,,,male,,0.0-101.0,,,1,,,,,2.180729,../audio/M2_04.WAV,,M2,354748,,Then I told them you know what never mind I'm not interested any more,101,audio-keyboard-response,,,,,
8,pilot,F4_04,,,,,1.514,,,,,female,,0.0-102.0,,,2,,,,,0.719448,../audio/F4_04.WAV,,F4,356264,,Slowly put the fish in the water,102,audio-keyboard-response,,,,,
8,pilot,,9,,,,,,,,,,,0.0-103.0,,,,,,l,219,,"
      <center>
        <div id=""clip1"" class=""visual"">Clip 1<p>Press ""S""</p></div>
        <div id=""clip2"" class=""visual"">Clip 2<p>Press ""L""</p></div>
      </center>
      <p style=""text-align:center"">Which clip sounds more like someone who was <b>born in Boston?</b></p>
    ",,,358266,,,103,html-keyboard-response,,,,,
8,pilot,F1_03,,,,,2.034542,,,,,female,,0.0-104.0,,,1,,,,,2.999143102,../audio/F1_03.WAV,,F1,360801,,Certificate of sorts right a Youtube plaque,104,audio-keyboard-response,,,,,
8,pilot,F2_01,,,,,3.200677,,,,,female,,0.0-105.0,,,2,,,,,4.303388919,../audio/F2_01.WAV,,F2,364004,,I guess with every small step it helps,105,audio-keyboard-response,,,,,
8,pilot,,10,,,,,,,,,,,0.0-106.0,,,,,,s,33,,"
      <center>
        <div id=""clip1"" class=""visual"">Clip 1<p>Press ""S""</p></div>
        <div id=""clip2"" class=""visual"">Clip 2<p>Press ""L""</p></div>
      </center>
      <p style=""text-align:center"">Which clip sounds more like someone who was <b>born in Boston?</b></p>
    ",,,366006,,,106,html-keyboard-response,,,,,
8,pilot,M5_02,,,,,1.560854,,,,,male,,0.0-107.0,,,1,,,,,3.846153846,../audio/M5_02.WAV,,M5,368069,,You walk out of the situation rather than,107,audio-keyboard-response,,,,,
8,pilot,F2_02,,,,,2.902938,,,,,female,,0.0-108.0,,,2,,,,,4.172461752,../audio/F2_02.WAV,,F2,370973,,Buy each other roses and give each other cards,108,audio-keyboard-response,,,,,
8,pilot,,11,,,,,,,,,,,0.0-109.0,,,,,,s,1640,,"
      <center>
        <div id=""clip1"" class=""visual"">Clip 1<p>Press ""S""</p></div>
        <div id=""clip2"" class=""visual"">Clip 2<p>Press ""L""</p></div>
      </center>
      <p style=""text-align:center"">Which clip sounds more like someone who was <b>born in Boston?</b></p>
    ",,,372974,,,109,html-keyboard-response,,,,,
8,pilot,F1_04,,,,,3.175875,,,,,female,,0.0-110.0,,,1,,,,,3.68852459,../audio/F1_04.WAV,,F1,376652,,Believe that you cannot feel anything while you're doing,110,audio-keyboard-response,,,,,
8,pilot,M3_01,,,,,1.659469,,,,,male,,0.0-111.0,,,2,,,,,2.410606669,../audio/M3_01.WAV,,M3,378312,,I self-identify as a historian,111,audio-keyboard-response,,,,,
8,pilot,,12,,,,,,,,,,,0.0-112.0,,,,,,,,,"
      <center>
        <div id=""clip1"" class=""visual"">Clip 1<p>Press ""S""</p></div>
        <div id=""clip2"" class=""visual"">Clip 2<p>Press ""L""</p></div>
      </center>
      <p style=""text-align:center"">Which clip sounds more like someone who was <b>born in Boston?</b></p>
    ",,,380315,,,112,html-keyboard-response,,,,,
8,pilot,F5_01,,,,,1.144573,,,,,female,,0.0-113.0,,,1,,,,,1.144573,../audio/F5_01.WAV,,F5,381961,,But people have been telling me things about Junior,113,audio-keyboard-response,,,,,
8,pilot,M2_01,,,,,3.0,,,,,male,,0.0-114.0,,,2,,,,,3.02699,../audio/M2_01.WAV,,M2,384964,,I think the dinner how much was it,114,audio-keyboard-response,,,,,
8,pilot,,13,,,,,,,,,,,0.0-115.0,,,,,,,,,"
      <center>
        <div id=""clip1"" class=""visual"">Clip 1<p>Press ""S""</p></div>
        <div id=""clip2"" class=""visual"">Clip 2<p>Press ""L""</p></div>
      </center>
      <p style=""text-align:center"">Which clip sounds more like someone who was <b>born in Boston?</b></p>
    ",,,386966,,,115,html-keyboard-response,,,,,
8,pilot,F5_04,,,,,0.83549,,,,,female,,0.0-116.0,,,1,,,,,0.83549,../audio/F5_04.WAV,,F5,388303,,As long as you tell me that we are still together,116,audio-keyboard-response,,,,,
8,pilot,F3_03,,,,,1.738271,,,,,female,,0.0-117.0,,,2,,,,,4.746835443,../audio/F3_03.WAV,,F3,390043,,A lot of people put their stuff up there,117,audio-keyboard-response,,,,,
8,pilot,,14,,,,,,,,,,,0.0-118.0,,,,,,s,680,,"
      <center>
        <div id=""clip1"" class=""visual"">Clip 1<p>Press ""S""</p></div>
        <div id=""clip2"" class=""visual"">Clip 2<p>Press ""L""</p></div>
      </center>
      <p style=""text-align:center"">Which clip sounds more like someone who was <b>born in Boston?</b></p>
    ",,,392045,,,118,html-keyboard-response,,,,,
8,pilot,M3_02,,,,,1.70975,,,,,male,,0.0-119.0,,,1,,,,,3.775167785,../audio/M3_02.WAV,,M3,394256,,That's what I am first and foremost a historian,119,audio-keyboard-response,,,,,
8,pilot,M1_02,,,,,1.508312,,,,,male,,0.0-120.0,,,2,,,,,4.539559014,../audio/M1_02.WAV,,M1,395766,,So you you don't have to like,120,audio-keyboard-response,,,,,
8,pilot,,15,,,,,,,,,,,0.0-121.0,,,,,,l,981,,"
      <center>
        <div id=""clip1"" class=""visual"">Clip 1<p>Press ""S""</p></div>
        <div id=""clip2"" class=""visual"">Clip 2<p>Press ""L""</p></div>
      </center>
      <p style=""text-align:center"">Which clip sounds more like someone who was <b>born in Boston?</b></p>
    ",,,397767,,,121,html-keyboard-response,,,,,
8,pilot,F1_01,,,,,2.72926,,,,,female,,0.0-122.0,,,1,,,,,4.312203536,../audio/F1_01.WAV,,F1,400997,,That person was asking me a question and I replied,122,audio-keyboard-response,,,,,
8,pilot,F5_03,,,,,3.162094,,,,,female,,0.0-123.0,,,2,,,,,3.162094,../audio/F5_03.WAV,,F5,404161,,It was just through message,123,audio-keyboard-response,,,,,
8,pilot,,16,,,,,,,,,,,0.0-124.0,,,,,,l,471,,"
      <center>
        <div id=""clip1"" class=""visual"">Clip 1<p>Press ""S""</p></div>
        <div id=""clip2"" class=""visual"">Clip 2<p>Press ""L""</p></div>
      </center>
      <p style=""text-align:center"">Which clip sounds more like someone who was <b>born in Boston?</b></p>
    ",,,406163,,,124,html-keyboard-response,,,,,
8,pilot,F4_02,,,,,2.916635,,,,,female,,0.0-125.0,,,1,,,,,2.916635,../audio/F4_02.WAV,,F4,409581,,Really really like trying to show support to the person,125,audio-keyboard-response,,,,,
8,pilot,M3_04,,,,,2.564635,,,,,male,,0.0-126.0,,,2,,,,,3.351955307,../audio/M3_04.WAV,,M3,412147,,I hurt my knee quite badly,126,audio-keyboard-response,,,,,
8,pilot,,17,,,,,,,,,,,0.0-127.0,,,,,,l,375,,"
      <center>
        <div id=""clip1"" class=""visual"">Clip 1<p>Press ""S""</p></div>
        <div id=""clip2"" class=""visual"">Clip 2<p>Press ""L""</p></div>
      </center>
      <p style=""text-align:center"">Which clip sounds more like someone who was <b>born in Boston?</b></p>
    ",,,414149,,,127,html-keyboard-response,,,,,
8,pilot,M4_02,,,,,1.785187,,,,,male,,0.0-128.0,,,1,,,,,4.104669061,../audio/M4_02.WAV,,M4,416436,,I took the ATM card and I didn't,128,audio-keyboard-response,,,,,
8,pilot,M1_03,,,,,1.220375,,,,,male,,0.0-129.0,,,2,,,,,5.087881591,../audio/M1_03.WAV,,M1,417657,,It was not terrible because at that point of my life,129,audio-keyboard-response,,,,,
8,pilot,,18,,,,,,,,,,,0.0-130.0,,,,,,s,1040,,"
      <center>
        <div id=""clip1"" class=""visual"">Clip 1<p>Press ""S""</p></div>
        <div id=""clip2"" class=""visual"">Clip 2<p>Press ""L""</p></div>
      </center>
      <p style=""text-align:center"">Which clip sounds more like someone who was <b>born in Boston?</b></p>
    ",,,419660,,,130,html-keyboard-response,,,,,
8,pilot,M3_03,,,,,1.483458,,,,,male,,0.0-131.0,,,1,,,,,3.134796238,../audio/M3_03.WAV,,M3,421645,,But I've left that life behind me,131,audio-keyboard-response,,,,,
8,pilot,F3_04,,,,,1.651802,,,,,female,,0.0-132.0,,,2,,,,,4.810583283,../audio/F3_04.WAV,,F3,423297,,It can go up to like four times,132,audio-keyboard-response,,,,,
8,pilot,,19,,,,,,,,,,,0.0-133.0,,,,,,l,412,,"
      <center>
        <div id=""clip1"" class=""visual"">Clip 1<p>Press ""S""</p></div>
        <div id=""clip2"" class=""visual"">Clip 2<p>Press ""L""</p></div>
      </center>
      <p style=""text-align:center"">Which clip sounds more like someone who was <b>born in Boston?</b></p>
    ",,,425299,,,133,html-keyboard-response,,,,,
8,pilot,F3_01,,,,,4.267563,,,,,female,,0.0-134.0,,,1,,,,,3.688092729,../audio/F3_01.WAV,,F3,430068,,Regular products may cost like eleven dollars,134,audio-keyboard-response,,,,,
8,pilot,F2_03,,,,,1.372927,,,,,female,,0.0-135.0,,,2,,,,,5.323505324,../audio/F2_03.WAV,,F2,431442,,If let's say like you plug in your stuff into the switch right,135,audio-keyboard-response,,,,,
8,pilot,,20,,,,,,,,,,,0.0-136.0,,,,,,l,344,,"
      <center>
        <div id=""clip1"" class=""visual"">Clip 1<p>Press ""S""</p></div>
        <div id=""clip2"" class=""visual"">Clip 2<p>Press ""L""</p></div>
      </center>
      <p style=""text-align:center"">Which clip sounds more like someone who was <b>born in Boston?</b></p>
    ",,,433444,,,136,html-keyboard-response,,,,,
8,pilot,M1_01,,,,,1.480896,,,,,male,,0.0-137.0,,,1,,,,,5.043558001,../audio/M1_01.WAV,,M1,435427,,I said what is this,137,audio-keyboard-response,,,,,
8,pilot,M3_04,,,,,2.564635,,,,,male,,0.0-138.0,,,2,,,,,3.351955307,../audio/M3_04.WAV,,M3,437994,,I hurt my knee quite badly,138,audio-keyboard-response,,,,,
8,pilot,,1,,,,,,,,,,,0.0-139.0,,,,,,l,48,,"
      <center>
        <div id=""clip1"" class=""visual"">Clip 1<p>Press ""S""</p></div>
        <div id=""clip2"" class=""visual"">Clip 2<p>Press ""L""</p></div>
      </center>
      <p style=""text-align:center"">Which clip sounds more like someone who was <b>born in Boston?</b></p>
    ",,,439996,,,139,html-keyboard-response,,,,,
8,pilot,F1_02,,,,,2.456333,,,,,female,,0.0-140.0,,,1,,,,,4.419191919,../audio/F1_02.WAV,,F1,442954,,I didn't mean it that way and,140,audio-keyboard-response,,,,,
8,pilot,M3_03,,,,,1.483458,,,,,male,,0.0-141.0,,,2,,,,,3.134796238,../audio/M3_03.WAV,,M3,444439,,But I've left that life behind me,141,audio-keyboard-response,,,,,
8,pilot,,2,,,,,,,,,,,0.0-142.0,,,,,,l,500,,"
      <center>
        <div id=""clip1"" class=""visual"">Clip 1<p>Press ""S""</p></div>
        <div id=""clip2"" class=""visual"">Clip 2<p>Press ""L""</p></div>
      </center>
      <p style=""text-align:center"">Which clip sounds more like someone who was <b>born in Boston?</b></p>
    ",,,446440,,,142,html-keyboard-response,,,,,
8,pilot,F3_04,,,,,1.651802,,,,,female,,0.0-143.0,,,1,,,,,4.810583283,../audio/F3_04.WAV,,F3,448594,,It can go up to like four times,143,audio-keyboard-response,,,,,
8,pilot,F1_04,,,,,3.175875,,,,,female,,0.0-144.0,,,2,,,,,3.68852459,../audio/F1_04.WAV,,F1,451771,,Believe that you cannot feel anything while you're doing,144,audio-keyboard-response,,,,,
8,pilot,,3,,,,,,,,,,,0.0-145.0,,,,,,l,6,,"
      <center>
        <div id=""clip1"" class=""visual"">Clip 1<p>Press ""S""</p></div>
        <div id=""clip2"" class=""visual"">Clip 2<p>Press ""L""</p></div>
      </center>
      <p style=""text-align:center"">Which clip sounds more like someone who was <b>born in Boston?</b></p>
    ",,,453774,,,145,html-keyboard-response,,,,,
8,pilot,M1_04,,,,,0.999906,,,,,male,,0.0-146.0,,,1,,,,,3.530450132,../audio/M1_04.WAV,,M1,455275,,She travelled to Hong Kong with her family,146,audio-keyboard-response,,,,,
8,pilot,F1_03,,,,,2.034542,,,,,female,,0.0-147.0,,,2,,,,,2.999143102,../audio/F1_03.WAV,,F1,457311,,Certificate of sorts right a Youtube plaque,147,audio-keyboard-response,,,,,
8,pilot,,4,,,,,,,,,,,0.0-148.0,,,,,,l,883,,"
      <center>
        <div id=""clip1"" class=""visual"">Clip 1<p>Press ""S""</p></div>
        <div id=""clip2"" class=""visual"">Clip 2<p>Press ""L""</p></div>
      </center>
      <p style=""text-align:center"">Which clip sounds more like someone who was <b>born in Boston?</b></p>
    ",,,459314,,,148,html-keyboard-response,,,,,
8,pilot,F3_01,,,,,4.267563,,,,,female,,0.0-149.0,,,1,,,,,3.688092729,../audio/F3_01.WAV,,F3,464083,,Regular products may cost like eleven dollars,149,audio-keyboard-response,,,,,
8,pilot,F4_04,,,,,1.514,,,,,female,,0.0-150.0,,,2,,,,,0.719448,../audio/F4_04.WAV,,F4,465599,,Slowly put the fish in the water,150,audio-keyboard-response,,,,,
8,pilot,,5,,,,,,,,,,,0.0-151.0,,,,,,l,490,,"
      <center>
        <div id=""clip1"" class=""visual"">Clip 1<p>Press ""S""</p></div>
        <div id=""clip2"" class=""visual"">Clip 2<p>Press ""L""</p></div>
      </center>
      <p style=""text-align:center"">Which clip sounds more like someone who was <b>born in Boston?</b></p>
    ",,,467602,,,151,html-keyboard-response,,,,,
8,pilot,F1_01,,,,,2.72926,,,,,female,,0.0-152.0,,,1,,,,,4.312203536,../audio/F1_01.WAV,,F1,470833,,That person was asking me a question and I replied,152,audio-keyboard-response,,,,,
8,pilot,F2_02,,,,,2.902938,,,,,female,,0.0-153.0,,,2,,,,,4.172461752,../audio/F2_02.WAV,,F2,473737,,Buy each other roses and give each other cards,153,audio-keyboard-response,,,,,
8,pilot,,6,,,,,,,,,,,0.0-154.0,,,,,,l,1337,,"
      <center>
        <div id=""clip1"" class=""visual"">Clip 1<p>Press ""S""</p></div>
        <div id=""clip2"" class=""visual"">Clip 2<p>Press ""L""</p></div>
      </center>
      <p style=""text-align:center"">Which clip sounds more like someone who was <b>born in Boston?</b></p>
    ",,,475739,,,154,html-keyboard-response,,,,,
8,pilot,M5_03,,,,,1.118844,,,,,male,,0.0-155.0,,,1,,,,,4.603580563,../audio/M5_03.WAV,,M5,477359,,They say that it's not a good thing to,155,audio-keyboard-response,,,,,
8,pilot,F3_03,,,,,1.738271,,,,,female,,0.0-156.0,,,2,,,,,4.746835443,../audio/F3_03.WAV,,F3,479099,,A lot of people put their stuff up there,156,audio-keyboard-response,,,,,
8,pilot,,7,,,,,,,,,,,0.0-157.0,,,,,,l,977,,"
      <center>
        <div id=""clip1"" class=""visual"">Clip 1<p>Press ""S""</p></div>
        <div id=""clip2"" class=""visual"">Clip 2<p>Press ""L""</p></div>
      </center>
      <p style=""text-align:center"">Which clip sounds more like someone who was <b>born in Boston?</b></p>
    ",,,481101,,,157,html-keyboard-response,,,,,
8,pilot,M4_01,,,,,2.112052,,,,,male,,0.0-158.0,,,1,,,,,4.096262161,../audio/M4_01.WAV,,M4,483715,,Did you manage to fulfil them right now,158,audio-keyboard-response,,,,,
8,pilot,M3_02,,,,,1.70975,,,,,male,,0.0-159.0,,,2,,,,,3.775167785,../audio/M3_02.WAV,,M3,485425,,That's what I am first and foremost a historian,159,audio-keyboard-response,,,,,
8,pilot,,8,,,,,,,,,,,0.0-160.0,,,,,,l,831,,"
      <center>
        <div id=""clip1"" class=""visual"">Clip 1<p>Press ""S""</p></div>
        <div id=""clip2"" class=""visual"">Clip 2<p>Press ""L""</p></div>
      </center>
      <p style=""text-align:center"">Which clip sounds more like someone who was <b>born in Boston?</b></p>
    ",,,487427,,,160,html-keyboard-response,,,,,
8,pilot,F4_02,,,,,2.916635,,,,,female,,0.0-161.0,,,1,,,,,2.916635,../audio/F4_02.WAV,,F4,490846,,Really really like trying to show support to the person,161,audio-keyboard-response,,,,,
8,pilot,M5_01,,,,,2.002865,,,,,male,,0.0-162.0,,,2,,,,,3.53713997,../audio/M5_01.WAV,,M5,492850,,It's better to be factual about it,162,audio-keyboard-response,,,,,
8,pilot,,9,,,,,,,,,,,0.0-163.0,,,,,,l,539,,"
      <center>
        <div id=""clip1"" class=""visual"">Clip 1<p>Press ""S""</p></div>
        <div id=""clip2"" class=""visual"">Clip 2<p>Press ""L""</p></div>
      </center>
      <p style=""text-align:center"">Which clip sounds more like someone who was <b>born in Boston?</b></p>
    ",,,494852,,,163,html-keyboard-response,,,,,
8,pilot,M4_04,,,,,2.538281,,,,,male,,0.0-164.0,,,1,,,,,3.990877993,../audio/M4_04.WAV,,M4,497892,,I message him in IG with my,164,audio-keyboard-response,,,,,
8,pilot,F2_04,,,,,4.716052,,,,,female,,0.0-165.0,,,2,,,,,2.372479241,../audio/F2_04.WAV,,F2,502610,,Probably some household goods,165,audio-keyboard-response,,,,,
8,pilot,,10,,,,,,,,,,,0.0-166.0,,,,,,l,442,,"
      <center>
        <div id=""clip1"" class=""visual"">Clip 1<p>Press ""S""</p></div>
        <div id=""clip2"" class=""visual"">Clip 2<p>Press ""L""</p></div>
      </center>
      <p style=""text-align:center"">Which clip sounds more like someone who was <b>born in Boston?</b></p>
    ",,,504613,,,166,html-keyboard-response,,,,,
8,pilot,F5_03,,,,,3.162094,,,,,female,,0.0-167.0,,,1,,,,,3.162094,../audio/F5_03.WAV,,F5,508278,,It was just through message,167,audio-keyboard-response,,,,,
8,pilot,M2_02,,,,,1.039885,,,,,male,,0.0-168.0,,,2,,,,,1.039885,../audio/M2_02.WAV,,M2,509318,,When did you first start doing content,168,audio-keyboard-response,,,,,
8,pilot,,11,,,,,,,,,,,0.0-169.0,,,,,,l,467,,"
      <center>
        <div id=""clip1"" class=""visual"">Clip 1<p>Press ""S""</p></div>
        <div id=""clip2"" class=""visual"">Clip 2<p>Press ""L""</p></div>
      </center>
      <p style=""text-align:center"">Which clip sounds more like someone who was <b>born in Boston?</b></p>
    ",,,511319,,,169,html-keyboard-response,,,,,
8,pilot,M1_02,,,,,1.508312,,,,,male,,0.0-170.0,,,1,,,,,4.539559014,../audio/M1_02.WAV,,M1,513329,,So you you don't have to like,170,audio-keyboard-response,,,,,
8,pilot,F4_03,,,,,3.670938,,,,,female,,0.0-171.0,,,2,,,,,3.670938,../audio/F4_03.WAV,,F4,517001,,I don't think they catch feelings but they just become more attached to them,171,audio-keyboard-response,,,,,
8,pilot,,12,,,,,,,,,,,0.0-172.0,,,,,,l,817,,"
      <center>
        <div id=""clip1"" class=""visual"">Clip 1<p>Press ""S""</p></div>
        <div id=""clip2"" class=""visual"">Clip 2<p>Press ""L""</p></div>
      </center>
      <p style=""text-align:center"">Which clip sounds more like someone who was <b>born in Boston?</b></p>
    ",,,519003,,,172,html-keyboard-response,,,,,
8,pilot,M5_02,,,,,1.560854,,,,,male,,0.0-173.0,,,1,,,,,3.846153846,../audio/M5_02.WAV,,M5,521066,,You walk out of the situation rather than,173,audio-keyboard-response,,,,,
8,pilot,F5_02,,,,,2.006958,,,,,female,,0.0-174.0,,,2,,,,,2.006958,../audio/F5_02.WAV,,F5,523074,,I don't want to believe this,174,audio-keyboard-response,,,,,
8,pilot,,13,,,,,,,,,,,0.0-175.0,,,,,,s,919,,"
      <center>
        <div id=""clip1"" class=""visual"">Clip 1<p>Press ""S""</p></div>
        <div id=""clip2"" class=""visual"">Clip 2<p>Press ""L""</p></div>
      </center>
      <p style=""text-align:center"">Which clip sounds more like someone who was <b>born in Boston?</b></p>
    ",,,525076,,,175,html-keyboard-response,,,,,
8,pilot,F5_01,,,,,1.144573,,,,,female,,0.0-176.0,,,1,,,,,1.144573,../audio/F5_01.WAV,,F5,526721,,But people have been telling me things about Junior,176,audio-keyboard-response,,,,,
8,pilot,F5_04,,,,,0.83549,,,,,female,,0.0-177.0,,,2,,,,,0.83549,../audio/F5_04.WAV,,F5,527558,,As long as you tell me that we are still together,177,audio-keyboard-response,,,,,
8,pilot,,14,,,,,,,,,,,0.0-178.0,,,,,,l,1207,,"
      <center>
        <div id=""clip1"" class=""visual"">Clip 1<p>Press ""S""</p></div>
        <div id=""clip2"" class=""visual"">Clip 2<p>Press ""L""</p></div>
      </center>
      <p style=""text-align:center"">Which clip sounds more like someone who was <b>born in Boston?</b></p>
    ",,,529561,,,178,html-keyboard-response,,,,,
8,pilot,F3_02,,,,,4.438833,,,,,female,,0.0-179.0,,,1,,,,,4.833040422,../audio/F3_02.WAV,,F3,534502,,I mean honestly I'll say first it's so hard for us,179,audio-keyboard-response,,,,,
8,pilot,M2_04,,,,,2.180729,,,,,male,,0.0-180.0,,,2,,,,,2.180729,../audio/M2_04.WAV,,M2,536684,,Then I told them you know what never mind I'm not interested any more,180,audio-keyboard-response,,,,,
8,pilot,,15,,,,,,,,,,,0.0-181.0,,,,,,s,1611,,"
      <center>
        <div id=""clip1"" class=""visual"">Clip 1<p>Press ""S""</p></div>
        <div id=""clip2"" class=""visual"">Clip 2<p>Press ""L""</p></div>
      </center>
      <p style=""text-align:center"">Which clip sounds more like someone who was <b>born in Boston?</b></p>
    ",,,538686,,,181,html-keyboard-response,,,,,
8,pilot,M2_03,,,,,0.928833,,,,,male,,0.0-182.0,,,1,,,,,0.928833,../audio/M2_03.WAV,,M2,540116,,After this the moment the podcast end we are heading there,182,audio-keyboard-response,,,,,
8,pilot,F2_03,,,,,1.372927,,,,,female,,0.0-183.0,,,2,,,,,5.323505324,../audio/F2_03.WAV,,F2,541489,,If let's say like you plug in your stuff into the switch right,183,audio-keyboard-response,,,,,
8,pilot,,16,,,,,,,,,,,0.0-184.0,,,,,,l,342,,"
      <center>
        <div id=""clip1"" class=""visual"">Clip 1<p>Press ""S""</p></div>
        <div id=""clip2"" class=""visual"">Clip 2<p>Press ""L""</p></div>
      </center>
      <p style=""text-align:center"">Which clip sounds more like someone who was <b>born in Boston?</b></p>
    ",,,543492,,,184,html-keyboard-response,,,,,
8,pilot,M3_01,,,,,1.659469,,,,,male,,0.0-185.0,,,1,,,,,2.410606669,../audio/M3_01.WAV,,M3,545653,,I self-identify as a historian,185,audio-keyboard-response,,,,,
8,pilot,F2_01,,,,,3.200677,,,,,female,,0.0-186.0,,,2,,,,,4.303388919,../audio/F2_01.WAV,,F2,548855,,I guess with every small step it helps,186,audio-keyboard-response,,,,,
8,pilot,,17,,,,,,,,,,,0.0-187.0,,,,,,s,587,,"
      <center>
        <div id=""clip1"" class=""visual"">Clip 1<p>Press ""S""</p></div>
        <div id=""clip2"" class=""visual"">Clip 2<p>Press ""L""</p></div>
      </center>
      <p style=""text-align:center"">Which clip sounds more like someone who was <b>born in Boston?</b></p>
    ",,,550857,,,187,html-keyboard-response,,,,,
8,pilot,M1_03,,,,,1.220375,,,,,male,,0.0-188.0,,,1,,,,,5.087881591,../audio/M1_03.WAV,,M1,552578,,It was not terrible because at that point of my life,188,audio-keyboard-response,,,,,
8,pilot,M5_04,,,,,2.679688,,,,,male,,0.0-189.0,,,2,,,,,3.347680536,../audio/M5_04.WAV,,M5,555258,,Just talking about how why some people,189,audio-keyboard-response,,,,,
8,pilot,,18,,,,,,,,,,,0.0-190.0,,,,,,l,1315,,"
      <center>
        <div id=""clip1"" class=""visual"">Clip 1<p>Press ""S""</p></div>
        <div id=""clip2"" class=""visual"">Clip 2<p>Press ""L""</p></div>
      </center>
      <p style=""text-align:center"">Which clip sounds more like someone who was <b>born in Boston?</b></p>
    ",,,557261,,,190,html-keyboard-response,,,,,
8,pilot,F4_01,,,,,1.835479,,,,,female,,0.0-191.0,,,1,,,,,1.835479,../audio/F4_01.WAV,,F4,559598,,Are on the same level I think that's ok,191,audio-keyboard-response,,,,,
8,pilot,M4_02,,,,,1.785187,,,,,male,,0.0-192.0,,,2,,,,,4.104669061,../audio/M4_02.WAV,,M4,561384,,I took the ATM card and I didn't,192,audio-keyboard-response,,,,,
8,pilot,,19,,,,,,,,,,,0.0-193.0,,,,,,s,645,,"
      <center>
        <div id=""clip1"" class=""visual"">Clip 1<p>Press ""S""</p></div>
        <div id=""clip2"" class=""visual"">Clip 2<p>Press ""L""</p></div>
      </center>
      <p style=""text-align:center"">Which clip sounds more like someone who was <b>born in Boston?</b></p>
    ",,,563386,,,193,html-keyboard-response,,,,,
8,pilot,M2_01,,,,,3.0,,,,,male,,0.0-194.0,,,1,,,,,3.02699,../audio/M2_01.WAV,,M2,566888,,I think the dinner how much was it,194,audio-keyboard-response,,,,,
8,pilot,M4_03,,,,,2.137188,,,,,male,,0.0-195.0,,,2,,,,,3.298153034,../audio/M4_03.WAV,,M4,569027,,Be a son to him,195,audio-keyboard-response,,,,,
8,pilot,,20,,,,,,,,,,,0.0-196.0,,,,,,s,238,,"
      <center>
        <div id=""clip1"" class=""visual"">Clip 1<p>Press ""S""</p></div>
        <div id=""clip2"" class=""visual"">Clip 2<p>Press ""L""</p></div>
      </center>
      <p style=""text-align:center"">Which clip sounds more like someone who was <b>born in Boston?</b></p>
    ",,,571028,,,196,html-keyboard-response,,,,,
8,pilot,M3_03,,,,,1.483458,,,,,male,,0.0-197.0,,,1,,,,,3.134796238,../audio/M3_03.WAV,,M3,573014,,But I've left that life behind me,197,audio-keyboard-response,,,,,
8,pilot,F3_04,,,,,1.651802,,,,,female,,0.0-198.0,,,2,,,,,4.810583283,../audio/F3_04.WAV,,F3,574667,,It can go up to like four times,198,audio-keyboard-response,,,,,
8,pilot,,1,,,,,,,,,,,0.0-199.0,,,,,,l,955,,"
      <center>
        <div id=""clip1"" class=""visual"">Clip 1<p>Press ""S""</p></div>
        <div id=""clip2"" class=""visual"">Clip 2<p>Press ""L""</p></div>
      </center>
      <p style=""text-align:center"">Which clip sounds more like someone who was <b>born in Boston?</b></p>
    ",,,576670,,,199,html-keyboard-response,,,,,
8,pilot,F4_03,,,,,3.670938,,,,,female,,0.0-200.0,,,1,,,,,3.670938,../audio/F4_03.WAV,,F4,580842,,I don't think they catch feelings but they just become more attached to them,200,audio-keyboard-response,,,,,
8,pilot,M1_02,,,,,1.508312,,,,,male,,0.0-201.0,,,2,,,,,4.539559014,../audio/M1_02.WAV,,M1,582351,,So you you don't have to like,201,audio-keyboard-response,,,,,
8,pilot,,2,,,,,,,,,,,0.0-202.0,,,,,,s,412,,"
      <center>
        <div id=""clip1"" class=""visual"">Clip 1<p>Press ""S""</p></div>
        <div id=""clip2"" class=""visual"">Clip 2<p>Press ""L""</p></div>
      </center>
      <p style=""text-align:center"">Which clip sounds more like someone who was <b>born in Boston?</b></p>
    ",,,584354,,,202,html-keyboard-response,,,,,
8,pilot,F4_01,,,,,1.835479,,,,,female,,0.0-203.0,,,1,,,,,1.835479,../audio/F4_01.WAV,,F4,586692,,Are on the same level I think that's ok,203,audio-keyboard-response,,,,,
8,pilot,F3_02,,,,,4.438833,,,,,female,,0.0-204.0,,,2,,,,,4.833040422,../audio/F3_02.WAV,,F3,591132,,I mean honestly I'll say first it's so hard for us,204,audio-keyboard-response,,,,,
8,pilot,,3,,,,,,,,,,,0.0-205.0,,,,,,s,838,,"
      <center>
        <div id=""clip1"" class=""visual"">Clip 1<p>Press ""S""</p></div>
        <div id=""clip2"" class=""visual"">Clip 2<p>Press ""L""</p></div>
      </center>
      <p style=""text-align:center"">Which clip sounds more like someone who was <b>born in Boston?</b></p>
    ",,,593133,,,205,html-keyboard-response,,,,,
8,pilot,F5_02,,,,,2.006958,,,,,female,,0.0-206.0,,,1,,,,,2.006958,../audio/F5_02.WAV,,F5,595638,,I don't want to believe this,206,audio-keyboard-response,,,,,
8,pilot,F4_04,,,,,1.514,,,,,female,,0.0-207.0,,,2,,,,,0.719448,../audio/F4_04.WAV,,F4,597151,,Slowly put the fish in the water,207,audio-keyboard-response,,,,,
8,pilot,,4,,,,,,,,,,,0.0-208.0,,,,,,,,,"
      <center>
        <div id=""clip1"" class=""visual"">Clip 1<p>Press ""S""</p></div>
        <div id=""clip2"" class=""visual"">Clip 2<p>Press ""L""</p></div>
      </center>
      <p style=""text-align:center"">Which clip sounds more like someone who was <b>born in Boston?</b></p>
    ",,,599151,,,208,html-keyboard-response,,,,,
8,pilot,F1_02,,,,,2.456333,,,,,female,,0.0-209.0,,,1,,,,,4.419191919,../audio/F1_02.WAV,,F1,602105,,I didn't mean it that way and,209,audio-keyboard-response,,,,,
8,pilot,F1_03,,,,,2.034542,,,,,female,,0.0-210.0,,,2,,,,,2.999143102,../audio/F1_03.WAV,,F1,604139,,Certificate of sorts right a Youtube plaque,210,audio-keyboard-response,,,,,
8,pilot,,5,,,,,,,,,,,0.0-211.0,,,,,,s,487,,"
      <center>
        <div id=""clip1"" class=""visual"">Clip 1<p>Press ""S""</p></div>
        <div id=""clip2"" class=""visual"">Clip 2<p>Press ""L""</p></div>
      </center>
      <p style=""text-align:center"">Which clip sounds more like someone who was <b>born in Boston?</b></p>
    ",,,606139,,,211,html-keyboard-response,,,,,
8,pilot,M2_01,,,,,3.0,,,,,male,,0.0-212.0,,,1,,,,,3.02699,../audio/M2_01.WAV,,M2,609640,,I think the dinner how much was it,212,audio-keyboard-response,,,,,
8,pilot,F2_03,,,,,1.372927,,,,,female,,0.0-213.0,,,2,,,,,5.323505324,../audio/F2_03.WAV,,F2,611013,,If let's say like you plug in your stuff into the switch right,213,audio-keyboard-response,,,,,
8,pilot,,6,,,,,,,,,,,0.0-214.0,,,,,,l,485,,"
      <center>
        <div id=""clip1"" class=""visual"">Clip 1<p>Press ""S""</p></div>
        <div id=""clip2"" class=""visual"">Clip 2<p>Press ""L""</p></div>
      </center>
      <p style=""text-align:center"">Which clip sounds more like someone who was <b>born in Boston?</b></p>
    ",,,613014,,,214,html-keyboard-response,,,,,
8,pilot,F5_01,,,,,1.144573,,,,,female,,0.0-215.0,,,1,,,,,1.144573,../audio/F5_01.WAV,,F5,614659,,But people have been telling me things about Junior,215,audio-keyboard-response,,,,,
8,pilot,M3_01,,,,,1.659469,,,,,male,,0.0-216.0,,,2,,,,,2.410606669,../audio/M3_01.WAV,,M3,616319,,I self-identify as a historian,216,audio-keyboard-response,,,,,
8,pilot,,7,,,,,,,,,,,0.0-217.0,,,,,,s,1985,,"
      <center>
        <div id=""clip1"" class=""visual"">Clip 1<p>Press ""S""</p></div>
        <div id=""clip2"" class=""visual"">Clip 2<p>Press ""L""</p></div>
      </center>
      <p style=""text-align:center"">Which clip sounds more like someone who was <b>born in Boston?</b></p>
    ",,,618321,,,217,html-keyboard-response,,,,,
8,pilot,M5_01,,,,,2.002865,,,,,male,,0.0-218.0,,,1,,,,,3.53713997,../audio/M5_01.WAV,,M5,620824,,It's better to be factual about it,218,audio-keyboard-response,,,,,
8,pilot,F2_01,,,,,3.200677,,,,,female,,0.0-219.0,,,2,,,,,4.303388919,../audio/F2_01.WAV,,F2,624025,,I guess with every small step it helps,219,audio-keyboard-response,,,,,
8,pilot,,8,,,,,,,,,,,0.0-220.0,,,,,,s,426,,"
      <center>
        <div id=""clip1"" class=""visual"">Clip 1<p>Press ""S""</p></div>
        <div id=""clip2"" class=""visual"">Clip 2<p>Press ""L""</p></div>
      </center>
      <p style=""text-align:center"">Which clip sounds more like someone who was <b>born in Boston?</b></p>
    ",,,626027,,,220,html-keyboard-response,,,,,
8,pilot,F2_04,,,,,4.716052,,,,,female,,0.0-221.0,,,1,,,,,2.372479241,../audio/F2_04.WAV,,F2,631244,,Probably some household goods,221,audio-keyboard-response,,,,,
8,pilot,M5_02,,,,,1.560854,,,,,male,,0.0-222.0,,,2,,,,,3.846153846,../audio/M5_02.WAV,,M5,632805,,You walk out of the situation rather than,222,audio-keyboard-response,,,,,
8,pilot,,9,,,,,,,,,,,0.0-223.0,,,,,,l,618,,"
      <center>
        <div id=""clip1"" class=""visual"">Clip 1<p>Press ""S""</p></div>
        <div id=""clip2"" class=""visual"">Clip 2<p>Press ""L""</p></div>
      </center>
      <p style=""text-align:center"">Which clip sounds more like someone who was <b>born in Boston?</b></p>
    ",,,634807,,,223,html-keyboard-response,,,,,
8,pilot,M3_04,,,,,2.564635,,,,,male,,0.0-224.0,,,1,,,,,3.351955307,../audio/M3_04.WAV,,M3,637872,,I hurt my knee quite badly,224,audio-keyboard-response,,,,,
8,pilot,M3_02,,,,,1.70975,,,,,male,,0.0-225.0,,,2,,,,,3.775167785,../audio/M3_02.WAV,,M3,639582,,That's what I am first and foremost a historian,225,audio-keyboard-response,,,,,
8,pilot,,10,,,,,,,,,,,0.0-226.0,,,,,,l,1746,,"
      <center>
        <div id=""clip1"" class=""visual"">Clip 1<p>Press ""S""</p></div>
        <div id=""clip2"" class=""visual"">Clip 2<p>Press ""L""</p></div>
      </center>
      <p style=""text-align:center"">Which clip sounds more like someone who was <b>born in Boston?</b></p>
    ",,,641584,,,226,html-keyboard-response,,,,,
8,pilot,M1_01,,,,,1.480896,,,,,male,,0.0-227.0,,,1,,,,,5.043558001,../audio/M1_01.WAV,,M1,643566,,I said what is this,227,audio-keyboard-response,,,,,
8,pilot,F5_04,,,,,0.83549,,,,,female,,0.0-228.0,,,2,,,,,0.83549,../audio/F5_04.WAV,,F5,644403,,As long as you tell me that we are still together,228,audio-keyboard-response,,,,,
8,pilot,,11,,,,,,,,,,,0.0-229.0,,,,,,l,736,,"
      <center>
        <div id=""clip1"" class=""visual"">Clip 1<p>Press ""S""</p></div>
        <div id=""clip2"" class=""visual"">Clip 2<p>Press ""L""</p></div>
      </center>
      <p style=""text-align:center"">Which clip sounds more like someone who was <b>born in Boston?</b></p>
    ",,,646405,,,229,html-keyboard-response,,,,,
8,pilot,M2_04,,,,,2.180729,,,,,male,,0.0-230.0,,,1,,,,,2.180729,../audio/M2_04.WAV,,M2,649086,,Then I told them you know what never mind I'm not interested any more,230,audio-keyboard-response,,,,,
8,pilot,M2_03,,,,,0.928833,,,,,male,,0.0-231.0,,,2,,,,,0.928833,../audio/M2_03.WAV,,M2,650017,,After this the moment the podcast end we are heading there,231,audio-keyboard-response,,,,,
8,pilot,,12,,,,,,,,,,,0.0-232.0,,,,,,l,1699,,"
      <center>
        <div id=""clip1"" class=""visual"">Clip 1<p>Press ""S""</p></div>
        <div id=""clip2"" class=""visual"">Clip 2<p>Press ""L""</p></div>
      </center>
      <p style=""text-align:center"">Which clip sounds more like someone who was <b>born in Boston?</b></p>
    ",,,652019,,,232,html-keyboard-response,,,,,
8,pilot,F4_02,,,,,2.916635,,,,,female,,0.0-233.0,,,1,,,,,2.916635,../audio/F4_02.WAV,,F4,655437,,Really really like trying to show support to the person,233,audio-keyboard-response,,,,,
8,pilot,F1_01,,,,,2.72926,,,,,female,,0.0-234.0,,,2,,,,,4.312203536,../audio/F1_01.WAV,,F1,658168,,That person was asking me a question and I replied,234,audio-keyboard-response,,,,,
8,pilot,,13,,,,,,,,,,,0.0-235.0,,,,,,l,1715,,"
      <center>
        <div id=""clip1"" class=""visual"">Clip 1<p>Press ""S""</p></div>
        <div id=""clip2"" class=""visual"">Clip 2<p>Press ""L""</p></div>
      </center>
      <p style=""text-align:center"">Which clip sounds more like someone who was <b>born in Boston?</b></p>
    ",,,660170,,,235,html-keyboard-response,,,,,
8,pilot,M2_02,,,,,1.039885,,,,,male,,0.0-236.0,,,1,,,,,1.039885,../audio/M2_02.WAV,,M2,661711,,When did you first start doing content,236,audio-keyboard-response,,,,,
8,pilot,M5_04,,,,,2.679688,,,,,male,,0.0-237.0,,,2,,,,,3.347680536,../audio/M5_04.WAV,,M5,664393,,Just talking about how why some people,237,audio-keyboard-response,,,,,
8,pilot,,14,,,,,,,,,,,0.0-238.0,,,,,,l,1128,,"
      <center>
        <div id=""clip1"" class=""visual"">Clip 1<p>Press ""S""</p></div>
        <div id=""clip2"" class=""visual"">Clip 2<p>Press ""L""</p></div>
      </center>
      <p style=""text-align:center"">Which clip sounds more like someone who was <b>born in Boston?</b></p>
    ",,,666395,,,238,html-keyboard-response,,,,,
8,pilot,F3_01,,,,,4.267563,,,,,female,,0.0-239.0,,,1,,,,,3.688092729,../audio/F3_01.WAV,,F3,671164,,Regular products may cost like eleven dollars,239,audio-keyboard-response,,,,,
8,pilot,F3_03,,,,,1.738271,,,,,female,,0.0-240.0,,,2,,,,,4.746835443,../audio/F3_03.WAV,,F3,672904,,A lot of people put their stuff up there,240,audio-keyboard-response,,,,,
8,pilot,,15,,,,,,,,,,,0.0-241.0,,,,,,l,1469,,"
      <center>
        <div id=""clip1"" class=""visual"">Clip 1<p>Press ""S""</p></div>
        <div id=""clip2"" class=""visual"">Clip 2<p>Press ""L""</p></div>
      </center>
      <p style=""text-align:center"">Which clip sounds more like someone who was <b>born in Boston?</b></p>
    ",,,674906,,,241,html-keyboard-response,,,,,
8,pilot,M4_02,,,,,1.785187,,,,,male,,0.0-242.0,,,1,,,,,4.104669061,../audio/M4_02.WAV,,M4,677193,,I took the ATM card and I didn't,242,audio-keyboard-response,,,,,
8,pilot,M4_03,,,,,2.137188,,,,,male,,0.0-243.0,,,2,,,,,3.298153034,../audio/M4_03.WAV,,M4,679332,,Be a son to him,243,audio-keyboard-response,,,,,
8,pilot,,16,,,,,,,,,,,0.0-244.0,,,,,,s,916,,"
      <center>
        <div id=""clip1"" class=""visual"">Clip 1<p>Press ""S""</p></div>
        <div id=""clip2"" class=""visual"">Clip 2<p>Press ""L""</p></div>
      </center>
      <p style=""text-align:center"">Which clip sounds more like someone who was <b>born in Boston?</b></p>
    ",,,681335,,,244,html-keyboard-response,,,,,
8,pilot,F1_04,,,,,3.175875,,,,,female,,0.0-245.0,,,1,,,,,3.68852459,../audio/F1_04.WAV,,F1,685012,,Believe that you cannot feel anything while you're doing,245,audio-keyboard-response,,,,,
8,pilot,M4_01,,,,,2.112052,,,,,male,,0.0-246.0,,,2,,,,,4.096262161,../audio/M4_01.WAV,,M4,687126,,Did you manage to fulfil them right now,246,audio-keyboard-response,,,,,
8,pilot,,17,,,,,,,,,,,0.0-247.0,,,,,,s,718,,"
      <center>
        <div id=""clip1"" class=""visual"">Clip 1<p>Press ""S""</p></div>
        <div id=""clip2"" class=""visual"">Clip 2<p>Press ""L""</p></div>
      </center>
      <p style=""text-align:center"">Which clip sounds more like someone who was <b>born in Boston?</b></p>
    ",,,689129,,,247,html-keyboard-response,,,,,
8,pilot,M5_03,,,,,1.118844,,,,,male,,0.0-248.0,,,1,,,,,4.603580563,../audio/M5_03.WAV,,M5,690748,,They say that it's not a good thing to,248,audio-keyboard-response,,,,,
8,pilot,F5_03,,,,,3.162094,,,,,female,,0.0-249.0,,,2,,,,,3.162094,../audio/F5_03.WAV,,F5,693911,,It was just through message,249,audio-keyboard-response,,,,,
8,pilot,,18,,,,,,,,,,,0.0-250.0,,,,,,l,158,,"
      <center>
        <div id=""clip1"" class=""visual"">Clip 1<p>Press ""S""</p></div>
        <div id=""clip2"" class=""visual"">Clip 2<p>Press ""L""</p></div>
      </center>
      <p style=""text-align:center"">Which clip sounds more like someone who was <b>born in Boston?</b></p>
    ",,,695912,,,250,html-keyboard-response,,,,,
8,pilot,M4_04,,,,,2.538281,,,,,male,,0.0-251.0,,,1,,,,,3.990877993,../audio/M4_04.WAV,,M4,698952,,I message him in IG with my,251,audio-keyboard-response,,,,,
8,pilot,M1_03,,,,,1.220375,,,,,male,,0.0-252.0,,,2,,,,,5.087881591,../audio/M1_03.WAV,,M1,700173,,It was not terrible because at that point of my life,252,audio-keyboard-response,,,,,
8,pilot,,19,,,,,,,,,,,0.0-253.0,,,,,,s,1025,,"
      <center>
        <div id=""clip1"" class=""visual"">Clip 1<p>Press ""S""</p></div>
        <div id=""clip2"" class=""visual"">Clip 2<p>Press ""L""</p></div>
      </center>
      <p style=""text-align:center"">Which clip sounds more like someone who was <b>born in Boston?</b></p>
    ",,,702176,,,253,html-keyboard-response,,,,,
8,pilot,F2_02,,,,,2.902938,,,,,female,,0.0-254.0,,,1,,,,,4.172461752,../audio/F2_02.WAV,,F2,705579,,Buy each other roses and give each other cards,254,audio-keyboard-response,,,,,
8,pilot,M1_04,,,,,0.999906,,,,,male,,0.0-255.0,,,2,,,,,3.530450132,../audio/M1_04.WAV,,M1,706579,,She travelled to Hong Kong with her family,255,audio-keyboard-response,,,,,
8,pilot,,20,,,,,,,,,,,0.0-256.0,,,,,,l,166,,"
      <center>
        <div id=""clip1"" class=""visual"">Clip 1<p>Press ""S""</p></div>
        <div id=""clip2"" class=""visual"">Clip 2<p>Press ""L""</p></div>
      </center>
      <p style=""text-align:center"">Which clip sounds more like someone who was <b>born in Boston?</b></p>
    ",,,708582,,,256,html-keyboard-response,,,,,
8,pilot,M2_02,,,,,1.039885,,,,,male,,0.0-257.0,,,1,,,,,1.039885,../audio/M2_02.WAV,,M2,710123,,When did you first start doing content,257,audio-keyboard-response,,,,,
8,pilot,M2_04,,,,,2.180729,,,,,male,,0.0-258.0,,,2,,,,,2.180729,../audio/M2_04.WAV,,M2,712305,,Then I told them you know what never mind I'm not interested any more,258,audio-keyboard-response,,,,,
8,pilot,,1,,,,,,,,,,,0.0-259.0,,,,,,,,,"
      <center>
        <div id=""clip1"" class=""visual"">Clip 1<p>Press ""S""</p></div>
        <div id=""clip2"" class=""visual"">Clip 2<p>Press ""L""</p></div>
      </center>
      <p style=""text-align:center"">Which clip sounds more like someone who was <b>born in Boston?</b></p>
    ",,,714308,,,259,html-keyboard-response,,,,,
8,pilot,M3_02,,,,,1.70975,,,,,male,,0.0-260.0,,,1,,,,,3.775167785,../audio/M3_02.WAV,,M3,716519,,That's what I am first and foremost a historian,260,audio-keyboard-response,,,,,
8,pilot,F1_02,,,,,2.456333,,,,,female,,0.0-261.0,,,2,,,,,4.419191919,../audio/F1_02.WAV,,F1,718975,,I didn't mean it that way and,261,audio-keyboard-response,,,,,
8,pilot,,2,,,,,,,,,,,0.0-262.0,,,,,,l,923,,"
      <center>
        <div id=""clip1"" class=""visual"">Clip 1<p>Press ""S""</p></div>
        <div id=""clip2"" class=""visual"">Clip 2<p>Press ""L""</p></div>
      </center>
      <p style=""text-align:center"">Which clip sounds more like someone who was <b>born in Boston?</b></p>
    ",,,720977,,,262,html-keyboard-response,,,,,
8,pilot,F4_04,,,,,1.514,,,,,female,,0.0-263.0,,,1,,,,,0.719448,../audio/F4_04.WAV,,F4,722993,,Slowly put the fish in the water,263,audio-keyboard-response,,,,,
8,pilot,F5_02,,,,,2.006958,,,,,female,,0.0-264.0,,,2,,,,,2.006958,../audio/F5_02.WAV,,F5,725001,,I don't want to believe this,264,audio-keyboard-response,,,,,
8,pilot,,3,,,,,,,,,,,0.0-265.0,,,,,,l,1229,,"
      <center>
        <div id=""clip1"" class=""visual"">Clip 1<p>Press ""S""</p></div>
        <div id=""clip2"" class=""visual"">Clip 2<p>Press ""L""</p></div>
      </center>
      <p style=""text-align:center"">Which clip sounds more like someone who was <b>born in Boston?</b></p>
    ",,,727002,,,265,html-keyboard-response,,,,,
8,pilot,F5_03,,,,,3.162094,,,,,female,,0.0-266.0,,,1,,,,,3.162094,../audio/F5_03.WAV,,F5,730665,,It was just through message,266,audio-keyboard-response,,,,,
8,pilot,F4_01,,,,,1.835479,,,,,female,,0.0-267.0,,,2,,,,,1.835479,../audio/F4_01.WAV,,F4,732502,,Are on the same level I think that's ok,267,audio-keyboard-response,,,,,
8,pilot,,4,,,,,,,,,,,0.0-268.0,,,,,,s,1191,,"
      <center>
        <div id=""clip1"" class=""visual"">Clip 1<p>Press ""S""</p></div>
        <div id=""clip2"" class=""visual"">Clip 2<p>Press ""L""</p></div>
      </center>
      <p style=""text-align:center"">Which clip sounds more like someone who was <b>born in Boston?</b></p>
    ",,,734505,,,268,html-keyboard-response,,,,,
8,pilot,F1_03,,,,,2.034542,,,,,female,,0.0-269.0,,,1,,,,,2.999143102,../audio/F1_03.WAV,,F1,737042,,Certificate of sorts right a Youtube plaque,269,audio-keyboard-response,,,,,
8,pilot,M5_02,,,,,1.560854,,,,,male,,0.0-270.0,,,2,,,,,3.846153846,../audio/M5_02.WAV,,M5,738604,,You walk out of the situation rather than,270,audio-keyboard-response,,,,,
8,pilot,,5,,,,,,,,,,,0.0-271.0,,,,,,s,1476,,"
      <center>
        <div id=""clip1"" class=""visual"">Clip 1<p>Press ""S""</p></div>
        <div id=""clip2"" class=""visual"">Clip 2<p>Press ""L""</p></div>
      </center>
      <p style=""text-align:center"">Which clip sounds more like someone who was <b>born in Boston?</b></p>
    ",,,740605,,,271,html-keyboard-response,,,,,
8,pilot,M4_02,,,,,1.785187,,,,,male,,0.0-272.0,,,1,,,,,4.104669061,../audio/M4_02.WAV,,M4,742893,,I took the ATM card and I didn't,272,audio-keyboard-response,,,,,
8,pilot,F3_02,,,,,4.438833,,,,,female,,0.0-273.0,,,2,,,,,4.833040422,../audio/F3_02.WAV,,F3,747332,,I mean honestly I'll say first it's so hard for us,273,audio-keyboard-response,,,,,
8,pilot,,6,,,,,,,,,,,0.0-274.0,,,,,,l,773,,"
      <center>
        <div id=""clip1"" class=""visual"">Clip 1<p>Press ""S""</p></div>
        <div id=""clip2"" class=""visual"">Clip 2<p>Press ""L""</p></div>
      </center>
      <p style=""text-align:center"">Which clip sounds more like someone who was <b>born in Boston?</b></p>
    ",,,749334,,,274,html-keyboard-response,,,,,
8,pilot,F2_02,,,,,2.902938,,,,,female,,0.0-275.0,,,1,,,,,4.172461752,../audio/F2_02.WAV,,F2,752739,,Buy each other roses and give each other cards,275,audio-keyboard-response,,,,,
8,pilot,M4_04,,,,,2.538281,,,,,male,,0.0-276.0,,,2,,,,,3.990877993,../audio/M4_04.WAV,,M4,755279,,I message him in IG with my,276,audio-keyboard-response,,,,,
8,pilot,,7,,,,,,,,,,,0.0-277.0,,,,,,l,512,,"
      <center>
        <div id=""clip1"" class=""visual"">Clip 1<p>Press ""S""</p></div>
        <div id=""clip2"" class=""visual"">Clip 2<p>Press ""L""</p></div>
      </center>
      <p style=""text-align:center"">Which clip sounds more like someone who was <b>born in Boston?</b></p>
    ",,,757282,,,277,html-keyboard-response,,,,,
8,pilot,F2_01,,,,,3.200677,,,,,female,,0.0-278.0,,,1,,,,,4.303388919,../audio/F2_01.WAV,,F2,760984,,I guess with every small step it helps,278,audio-keyboard-response,,,,,
8,pilot,F3_03,,,,,1.738271,,,,,female,,0.0-279.0,,,2,,,,,4.746835443,../audio/F3_03.WAV,,F3,762725,,A lot of people put their stuff up there,279,audio-keyboard-response,,,,,
8,pilot,,8,,,,,,,,,,,0.0-280.0,,,,,,l,391,,"
      <center>
        <div id=""clip1"" class=""visual"">Clip 1<p>Press ""S""</p></div>
        <div id=""clip2"" class=""visual"">Clip 2<p>Press ""L""</p></div>
      </center>
      <p style=""text-align:center"">Which clip sounds more like someone who was <b>born in Boston?</b></p>
    ",,,764727,,,280,html-keyboard-response,,,,,
8,pilot,M2_03,,,,,0.928833,,,,,male,,0.0-281.0,,,1,,,,,0.928833,../audio/M2_03.WAV,,M2,766158,,After this the moment the podcast end we are heading there,281,audio-keyboard-response,,,,,
8,pilot,F5_04,,,,,0.83549,,,,,female,,0.0-282.0,,,2,,,,,0.83549,../audio/F5_04.WAV,,F5,766995,,As long as you tell me that we are still together,282,audio-keyboard-response,,,,,
8,pilot,,9,,,,,,,,,,,0.0-283.0,,,,,,,,,"
      <center>
        <div id=""clip1"" class=""visual"">Clip 1<p>Press ""S""</p></div>
        <div id=""clip2"" class=""visual"">Clip 2<p>Press ""L""</p></div>
      </center>
      <p style=""text-align:center"">Which clip sounds more like someone who was <b>born in Boston?</b></p>
    ",,,768996,,,283,html-keyboard-response,,,,,
8,pilot,F1_01,,,,,2.72926,,,,,female,,0.0-284.0,,,1,,,,,4.312203536,../audio/F1_01.WAV,,F1,772227,,That person was asking me a question and I replied,284,audio-keyboard-response,,,,,
8,pilot,M1_03,,,,,1.220375,,,,,male,,0.0-285.0,,,2,,,,,5.087881591,../audio/M1_03.WAV,,M1,773448,,It was not terrible because at that point of my life,285,audio-keyboard-response,,,,,
8,pilot,,10,,,,,,,,,,,0.0-286.0,,,,,,,,,"
      <center>
        <div id=""clip1"" class=""visual"">Clip 1<p>Press ""S""</p></div>
        <div id=""clip2"" class=""visual"">Clip 2<p>Press ""L""</p></div>
      </center>
      <p style=""text-align:center"">Which clip sounds more like someone who was <b>born in Boston?</b></p>
    ",,,775451,,,286,html-keyboard-response,,,,,
8,pilot,F5_01,,,,,1.144573,,,,,female,,0.0-287.0,,,1,,,,,1.144573,../audio/F5_01.WAV,,F5,777097,,But people have been telling me things about Junior,287,audio-keyboard-response,,,,,
8,pilot,F2_04,,,,,4.716052,,,,,female,,0.0-288.0,,,2,,,,,2.372479241,../audio/F2_04.WAV,,F2,781814,,Probably some household goods,288,audio-keyboard-response,,,,,
8,pilot,,11,,,,,,,,,,,0.0-289.0,,,,,,l,511,,"
      <center>
        <div id=""clip1"" class=""visual"">Clip 1<p>Press ""S""</p></div>
        <div id=""clip2"" class=""visual"">Clip 2<p>Press ""L""</p></div>
      </center>
      <p style=""text-align:center"">Which clip sounds more like someone who was <b>born in Boston?</b></p>
    ",,,783816,,,289,html-keyboard-response,,,,,
8,pilot,F2_03,,,,,1.372927,,,,,female,,0.0-290.0,,,1,,,,,5.323505324,../audio/F2_03.WAV,,F2,785691,,If let's say like you plug in your stuff into the switch right,290,audio-keyboard-response,,,,,
8,pilot,F3_01,,,,,4.267563,,,,,female,,0.0-291.0,,,2,,,,,3.688092729,../audio/F3_01.WAV,,F3,789959,,Regular products may cost like eleven dollars,291,audio-keyboard-response,,,,,
8,pilot,,12,,,,,,,,,,,0.0-292.0,,,,,,l,329,,"
      <center>
        <div id=""clip1"" class=""visual"">Clip 1<p>Press ""S""</p></div>
        <div id=""clip2"" class=""visual"">Clip 2<p>Press ""L""</p></div>
      </center>
      <p style=""text-align:center"">Which clip sounds more like someone who was <b>born in Boston?</b></p>
    ",,,791961,,,292,html-keyboard-response,,,,,
8,pilot,M1_01,,,,,1.480896,,,,,male,,0.0-293.0,,,1,,,,,5.043558001,../audio/M1_01.WAV,,M1,793943,,I said what is this,293,audio-keyboard-response,,,,,
8,pilot,M4_01,,,,,2.112052,,,,,male,,0.0-294.0,,,2,,,,,4.096262161,../audio/M4_01.WAV,,M4,796057,,Did you manage to fulfil them right now,294,audio-keyboard-response,,,,,
8,pilot,,13,,,,,,,,,,,0.0-295.0,,,,,,s,479,,"
      <center>
        <div id=""clip1"" class=""visual"">Clip 1<p>Press ""S""</p></div>
        <div id=""clip2"" class=""visual"">Clip 2<p>Press ""L""</p></div>
      </center>
      <p style=""text-align:center"">Which clip sounds more like someone who was <b>born in Boston?</b></p>
    ",,,798060,,,295,html-keyboard-response,,,,,
8,pilot,M5_04,,,,,2.679688,,,,,male,,0.0-296.0,,,1,,,,,3.347680536,../audio/M5_04.WAV,,M5,801241,,Just talking about how why some people,296,audio-keyboard-response,,,,,
8,pilot,F4_02,,,,,2.916635,,,,,female,,0.0-297.0,,,2,,,,,2.916635,../audio/F4_02.WAV,,F4,804158,,Really really like trying to show support to the person,297,audio-keyboard-response,,,,,
8,pilot,,14,,,,,,,,,,,0.0-298.0,,,,,,l,788,,"
      <center>
        <div id=""clip1"" class=""visual"">Clip 1<p>Press ""S""</p></div>
        <div id=""clip2"" class=""visual"">Clip 2<p>Press ""L""</p></div>
      </center>
      <p style=""text-align:center"">Which clip sounds more like someone who was <b>born in Boston?</b></p>
    ",,,806160,,,298,html-keyboard-response,,,,,
8,pilot,M5_01,,,,,2.002865,,,,,male,,0.0-299.0,,,1,,,,,3.53713997,../audio/M5_01.WAV,,M5,808665,,It's better to be factual about it,299,audio-keyboard-response,,,,,
8,pilot,M3_04,,,,,2.564635,,,,,male,,0.0-300.0,,,2,,,,,3.351955307,../audio/M3_04.WAV,,M3,811230,,I hurt my knee quite badly,300,audio-keyboard-response,,,,,
8,pilot,,15,,,,,,,,,,,0.0-301.0,,,,,,,,,"
      <center>
        <div id=""clip1"" class=""visual"">Clip 1<p>Press ""S""</p></div>
        <div id=""clip2"" class=""visual"">Clip 2<p>Press ""L""</p></div>
      </center>
      <p style=""text-align:center"">Which clip sounds more like someone who was <b>born in Boston?</b></p>
    ",,,813233,,,301,html-keyboard-response,,,,,
8,pilot,M5_03,,,,,1.118844,,,,,male,,0.0-302.0,,,1,,,,,4.603580563,../audio/M5_03.WAV,,M5,814852,,They say that it's not a good thing to,302,audio-keyboard-response,,,,,
8,pilot,F1_04,,,,,3.175875,,,,,female,,0.0-303.0,,,2,,,,,3.68852459,../audio/F1_04.WAV,,F1,818029,,Believe that you cannot feel anything while you're doing,303,audio-keyboard-response,,,,,
8,pilot,,16,,,,,,,,,,,0.0-304.0,,,,,,l,198,,"
      <center>
        <div id=""clip1"" class=""visual"">Clip 1<p>Press ""S""</p></div>
        <div id=""clip2"" class=""visual"">Clip 2<p>Press ""L""</p></div>
      </center>
      <p style=""text-align:center"">Which clip sounds more like someone who was <b>born in Boston?</b></p>
    ",,,820031,,,304,html-keyboard-response,,,,,
8,pilot,M4_03,,,,,2.137188,,,,,male,,0.0-305.0,,,1,,,,,3.298153034,../audio/M4_03.WAV,,M4,822670,,Be a son to him,305,audio-keyboard-response,,,,,
8,pilot,M2_01,,,,,3.0,,,,,male,,0.0-306.0,,,2,,,,,3.02699,../audio/M2_01.WAV,,M2,825671,,I think the dinner how much was it,306,audio-keyboard-response,,,,,
8,pilot,,17,,,,,,,,,,,0.0-307.0,,,,,,l,771,,"
      <center>
        <div id=""clip1"" class=""visual"">Clip 1<p>Press ""S""</p></div>
        <div id=""clip2"" class=""visual"">Clip 2<p>Press ""L""</p></div>
      </center>
      <p style=""text-align:center"">Which clip sounds more like someone who was <b>born in Boston?</b></p>
    ",,,827674,,,307,html-keyboard-response,,,,,
8,pilot,F4_03,,,,,3.670938,,,,,female,,0.0-308.0,,,1,,,,,3.670938,../audio/F4_03.WAV,,F4,831846,,I don't think they catch feelings but they just become more attached to them,308,audio-keyboard-response,,,,,
8,pilot,M3_01,,,,,1.659469,,,,,male,,0.0-309.0,,,2,,,,,2.410606669,../audio/M3_01.WAV,,M3,833508,,I self-identify as a historian,309,audio-keyboard-response,,,,,
8,pilot,,18,,,,,,,,,,,0.0-310.0,,,,,,l,508,,"
      <center>
        <div id=""clip1"" class=""visual"">Clip 1<p>Press ""S""</p></div>
        <div id=""clip2"" class=""visual"">Clip 2<p>Press ""L""</p></div>
      </center>
      <p style=""text-align:center"">Which clip sounds more like someone who was <b>born in Boston?</b></p>
    ",,,835510,,,310,html-keyboard-response,,,,,
8,pilot,M1_04,,,,,0.999906,,,,,male,,0.0-311.0,,,1,,,,,3.530450132,../audio/M1_04.WAV,,M1,837011,,She travelled to Hong Kong with her family,311,audio-keyboard-response,,,,,
8,pilot,M1_02,,,,,1.508312,,,,,male,,0.0-312.0,,,2,,,,,4.539559014,../audio/M1_02.WAV,,M1,838521,,So you you don't have to like,312,audio-keyboard-response,,,,,
8,pilot,,19,,,,,,,,,,,0.0-313.0,,,,,,l,1166,,"
      <center>
        <div id=""clip1"" class=""visual"">Clip 1<p>Press ""S""</p></div>
        <div id=""clip2"" class=""visual"">Clip 2<p>Press ""L""</p></div>
      </center>
      <p style=""text-align:center"">Which clip sounds more like someone who was <b>born in Boston?</b></p>
    ",,,840522,,,313,html-keyboard-response,,,,,
8,pilot,F3_04,,,,,1.651802,,,,,female,,0.0-314.0,,,1,,,,,4.810583283,../audio/F3_04.WAV,,F3,842676,,It can go up to like four times,314,audio-keyboard-response,,,,,
8,pilot,M3_03,,,,,1.483458,,,,,male,,0.0-315.0,,,2,,,,,3.134796238,../audio/M3_03.WAV,,M3,844160,,But I've left that life behind me,315,audio-keyboard-response,,,,,
8,pilot,,20,,,,,,,,,,,0.0-316.0,,,,,,s,488,,"
      <center>
        <div id=""clip1"" class=""visual"">Clip 1<p>Press ""S""</p></div>
        <div id=""clip2"" class=""visual"">Clip 2<p>Press ""L""</p></div>
      </center>
      <p style=""text-align:center"">Which clip sounds more like someone who was <b>born in Boston?</b></p>
    ",,,846162,,,316,html-keyboard-response,,,,,
8,pilot,F4_03,,,,,3.670938,,,,,female,,0.0-317.0,,,1,,,,,3.670938,../audio/F4_03.WAV,,F4,850335,,I don't think they catch feelings but they just become more attached to them,317,audio-keyboard-response,,,,,
8,pilot,M1_01,,,,,1.480896,,,,,male,,0.0-318.0,,,2,,,,,5.043558001,../audio/M1_01.WAV,,M1,851817,,I said what is this,318,audio-keyboard-response,,,,,
8,pilot,,1,,,,,,,,,,,0.0-319.0,,,,,,s,349,,"
      <center>
        <div id=""clip1"" class=""visual"">Clip 1<p>Press ""S""</p></div>
        <div id=""clip2"" class=""visual"">Clip 2<p>Press ""L""</p></div>
      </center>
      <p style=""text-align:center"">Which clip sounds more like someone who was <b>born in Boston?</b></p>
    ",,,853819,,,319,html-keyboard-response,,,,,
8,pilot,F1_02,,,,,2.456333,,,,,female,,0.0-320.0,,,1,,,,,4.419191919,../audio/F1_02.WAV,,F1,856778,,I didn't mean it that way and,320,audio-keyboard-response,,,,,
8,pilot,F4_04,,,,,1.514,,,,,female,,0.0-321.0,,,2,,,,,0.719448,../audio/F4_04.WAV,,F4,858293,,Slowly put the fish in the water,321,audio-keyboard-response,,,,,
8,pilot,,2,,,,,,,,,,,0.0-322.0,,,,,,,,,"
      <center>
        <div id=""clip1"" class=""visual"">Clip 1<p>Press ""S""</p></div>
        <div id=""clip2"" class=""visual"">Clip 2<p>Press ""L""</p></div>
      </center>
      <p style=""text-align:center"">Which clip sounds more like someone who was <b>born in Boston?</b></p>
    ",,,860295,,,322,html-keyboard-response,,,,,
8,pilot,F3_01,,,,,4.267563,,,,,female,,0.0-323.0,,,1,,,,,3.688092729,../audio/F3_01.WAV,,F3,865065,,Regular products may cost like eleven dollars,323,audio-keyboard-response,,,,,
8,pilot,M5_02,,,,,1.560854,,,,,male,,0.0-324.0,,,2,,,,,3.846153846,../audio/M5_02.WAV,,M5,866628,,You walk out of the situation rather than,324,audio-keyboard-response,,,,,
8,pilot,,3,,,,,,,,,,,0.0-325.0,,,,,,l,1435,,"
      <center>
        <div id=""clip1"" class=""visual"">Clip 1<p>Press ""S""</p></div>
        <div id=""clip2"" class=""visual"">Clip 2<p>Press ""L""</p></div>
      </center>
      <p style=""text-align:center"">Which clip sounds more like someone who was <b>born in Boston?</b></p>
    ",,,868629,,,325,html-keyboard-response,,,,,
8,pilot,M5_03,,,,,1.118844,,,,,male,,0.0-326.0,,,1,,,,,4.603580563,../audio/M5_03.WAV,,M5,870249,,They say that it's not a good thing to,326,audio-keyboard-response,,,,,
8,pilot,M3_03,,,,,1.483458,,,,,male,,0.0-327.0,,,2,,,,,3.134796238,../audio/M3_03.WAV,,M3,871734,,But I've left that life behind me,327,audio-keyboard-response,,,,,
8,pilot,,4,,,,,,,,,,,0.0-328.0,,,,,,s,1060,,"
      <center>
        <div id=""clip1"" class=""visual"">Clip 1<p>Press ""S""</p></div>
        <div id=""clip2"" class=""visual"">Clip 2<p>Press ""L""</p></div>
      </center>
      <p style=""text-align:center"">Which clip sounds more like someone who was <b>born in Boston?</b></p>
    ",,,873736,,,328,html-keyboard-response,,,,,
8,pilot,M4_01,,,,,2.112052,,,,,male,,0.0-329.0,,,1,,,,,4.096262161,../audio/M4_01.WAV,,M4,876351,,Did you manage to fulfil them right now,329,audio-keyboard-response,,,,,
8,pilot,M2_04,,,,,2.180729,,,,,male,,0.0-330.0,,,2,,,,,2.180729,../audio/M2_04.WAV,,M2,878532,,Then I told them you know what never mind I'm not interested any more,330,audio-keyboard-response,,,,,
8,pilot,,5,,,,,,,,,,,0.0-331.0,,,,,,l,833,,"
      <center>
        <div id=""clip1"" class=""visual"">Clip 1<p>Press ""S""</p></div>
        <div id=""clip2"" class=""visual"">Clip 2<p>Press ""L""</p></div>
      </center>
      <p style=""text-align:center"">Which clip sounds more like someone who was <b>born in Boston?</b></p>
    ",,,880535,,,331,html-keyboard-response,,,,,
8,pilot,M1_03,,,,,1.220375,,,,,male,,0.0-332.0,,,1,,,,,5.087881591,../audio/M1_03.WAV,,M1,882257,,It was not terrible because at that point of my life,332,audio-keyboard-response,,,,,
8,pilot,F2_01,,,,,3.200677,,,,,female,,0.0-333.0,,,2,,,,,4.303388919,../audio/F2_01.WAV,,F2,885460,,I guess with every small step it helps,333,audio-keyboard-response,,,,,
8,pilot,,6,,,,,,,,,,,0.0-334.0,,,,,,s,831,,"
      <center>
        <div id=""clip1"" class=""visual"">Clip 1<p>Press ""S""</p></div>
        <div id=""clip2"" class=""visual"">Clip 2<p>Press ""L""</p></div>
      </center>
      <p style=""text-align:center"">Which clip sounds more like someone who was <b>born in Boston?</b></p>
    ",,,887462,,,334,html-keyboard-response,,,,,
8,pilot,F2_03,,,,,1.372927,,,,,female,,0.0-335.0,,,1,,,,,5.323505324,../audio/F2_03.WAV,,F2,889336,,If let's say like you plug in your stuff into the switch right,335,audio-keyboard-response,,,,,
8,pilot,M2_03,,,,,0.928833,,,,,male,,0.0-336.0,,,2,,,,,0.928833,../audio/M2_03.WAV,,M2,890267,,After this the moment the podcast end we are heading there,336,audio-keyboard-response,,,,,
8,pilot,,7,,,,,,,,,,,0.0-337.0,,,,,,,,,"
      <center>
        <div id=""clip1"" class=""visual"">Clip 1<p>Press ""S""</p></div>
        <div id=""clip2"" class=""visual"">Clip 2<p>Press ""L""</p></div>
      </center>
      <p style=""text-align:center"">Which clip sounds more like someone who was <b>born in Boston?</b></p>
    ",,,892270,,,337,html-keyboard-response,,,,,
8,pilot,M4_04,,,,,2.538281,,,,,male,,0.0-338.0,,,1,,,,,3.990877993,../audio/M4_04.WAV,,M4,895310,,I message him in IG with my,338,audio-keyboard-response,,,,,
8,pilot,M1_04,,,,,0.999906,,,,,male,,0.0-339.0,,,2,,,,,3.530450132,../audio/M1_04.WAV,,M1,896310,,She travelled to Hong Kong with her family,339,audio-keyboard-response,,,,,
8,pilot,,8,,,,,,,,,,,0.0-340.0,,,,,,l,444,,"
      <center>
        <div id=""clip1"" class=""visual"">Clip 1<p>Press ""S""</p></div>
        <div id=""clip2"" class=""visual"">Clip 2<p>Press ""L""</p></div>
      </center>
      <p style=""text-align:center"">Which clip sounds more like someone who was <b>born in Boston?</b></p>
    ",,,898313,,,340,html-keyboard-response,,,,,
8,pilot,F5_02,,,,,2.006958,,,,,female,,0.0-341.0,,,1,,,,,2.006958,../audio/F5_02.WAV,,F5,900821,,I don't want to believe this,341,audio-keyboard-response,,,,,
8,pilot,M2_02,,,,,1.039885,,,,,male,,0.0-342.0,,,2,,,,,1.039885,../audio/M2_02.WAV,,M2,901861,,When did you first start doing content,342,audio-keyboard-response,,,,,
8,pilot,,9,,,,,,,,,,,0.0-343.0,,,,,,,,,"
      <center>
        <div id=""clip1"" class=""visual"">Clip 1<p>Press ""S""</p></div>
        <div id=""clip2"" class=""visual"">Clip 2<p>Press ""L""</p></div>
      </center>
      <p style=""text-align:center"">Which clip sounds more like someone who was <b>born in Boston?</b></p>
    ",,,903864,,,343,html-keyboard-response,,,,,
8,pilot,F3_02,,,,,4.438833,,,,,female,,0.0-344.0,,,1,,,,,4.833040422,../audio/F3_02.WAV,,F3,908804,,I mean honestly I'll say first it's so hard for us,344,audio-keyboard-response,,,,,
8,pilot,F5_04,,,,,0.83549,,,,,female,,0.0-345.0,,,2,,,,,0.83549,../audio/F5_04.WAV,,F5,909641,,As long as you tell me that we are still together,345,audio-keyboard-response,,,,,
8,pilot,,10,,,,,,,,,,,0.0-346.0,,,,,,l,771,,"
      <center>
        <div id=""clip1"" class=""visual"">Clip 1<p>Press ""S""</p></div>
        <div id=""clip2"" class=""visual"">Clip 2<p>Press ""L""</p></div>
      </center>
      <p style=""text-align:center"">Which clip sounds more like someone who was <b>born in Boston?</b></p>
    ",,,911644,,,346,html-keyboard-response,,,,,
8,pilot,M5_04,,,,,2.679688,,,,,male,,0.0-347.0,,,1,,,,,3.347680536,../audio/M5_04.WAV,,M5,914824,,Just talking about how why some people,347,audio-keyboard-response,,,,,
8,pilot,M5_01,,,,,2.002865,,,,,male,,0.0-348.0,,,2,,,,,3.53713997,../audio/M5_01.WAV,,M5,916828,,It's better to be factual about it,348,audio-keyboard-response,,,,,
8,pilot,,11,,,,,,,,,,,0.0-349.0,,,,,,,,,"
      <center>
        <div id=""clip1"" class=""visual"">Clip 1<p>Press ""S""</p></div>
        <div id=""clip2"" class=""visual"">Clip 2<p>Press ""L""</p></div>
      </center>
      <p style=""text-align:center"">Which clip sounds more like someone who was <b>born in Boston?</b></p>
    ",,,918829,,,349,html-keyboard-response,,,,,
8,pilot,F2_04,,,,,4.716052,,,,,female,,0.0-350.0,,,1,,,,,2.372479241,../audio/F2_04.WAV,,F2,924047,,Probably some household goods,350,audio-keyboard-response,,,,,
8,pilot,F4_02,,,,,2.916635,,,,,female,,0.0-351.0,,,2,,,,,2.916635,../audio/F4_02.WAV,,F4,926965,,Really really like trying to show support to the person,351,audio-keyboard-response,,,,,
8,pilot,,12,,,,,,,,,,,0.0-352.0,,,,,,l,348,,"
      <center>
        <div id=""clip1"" class=""visual"">Clip 1<p>Press ""S""</p></div>
        <div id=""clip2"" class=""visual"">Clip 2<p>Press ""L""</p></div>
      </center>
      <p style=""text-align:center"">Which clip sounds more like someone who was <b>born in Boston?</b></p>
    ",,,928967,,,352,html-keyboard-response,,,,,
8,pilot,M3_02,,,,,1.70975,,,,,male,,0.0-353.0,,,1,,,,,3.775167785,../audio/M3_02.WAV,,M3,931178,,That's what I am first and foremost a historian,353,audio-keyboard-response,,,,,
8,pilot,M3_01,,,,,1.659469,,,,,male,,0.0-354.0,,,2,,,,,2.410606669,../audio/M3_01.WAV,,M3,932840,,I self-identify as a historian,354,audio-keyboard-response,,,,,
8,pilot,,13,,,,,,,,,,,0.0-355.0,,,,,,l,289,,"
      <center>
        <div id=""clip1"" class=""visual"">Clip 1<p>Press ""S""</p></div>
        <div id=""clip2"" class=""visual"">Clip 2<p>Press ""L""</p></div>
      </center>
      <p style=""text-align:center"">Which clip sounds more like someone who was <b>born in Boston?</b></p>
    ",,,934842,,,355,html-keyboard-response,,,,,
8,pilot,F1_01,,,,,2.72926,,,,,female,,0.0-356.0,,,1,,,,,4.312203536,../audio/F1_01.WAV,,F1,938073,,That person was asking me a question and I replied,356,audio-keyboard-response,,,,,
8,pilot,F5_03,,,,,3.162094,,,,,female,,0.0-357.0,,,2,,,,,3.162094,../audio/F5_03.WAV,,F5,941237,,It was just through message,357,audio-keyboard-response,,,,,
8,pilot,,14,,,,,,,,,,,0.0-358.0,,,,,,,,,"
      <center>
        <div id=""clip1"" class=""visual"">Clip 1<p>Press ""S""</p></div>
        <div id=""clip2"" class=""visual"">Clip 2<p>Press ""L""</p></div>
      </center>
      <p style=""text-align:center"">Which clip sounds more like someone who was <b>born in Boston?</b></p>
    ",,,943240,,,358,html-keyboard-response,,,,,
8,pilot,M2_01,,,,,3.0,,,,,male,,0.0-359.0,,,1,,,,,3.02699,../audio/M2_01.WAV,,M2,946743,,I think the dinner how much was it,359,audio-keyboard-response,,,,,
8,pilot,F3_04,,,,,1.651802,,,,,female,,0.0-360.0,,,2,,,,,4.810583283,../audio/F3_04.WAV,,F3,948394,,It can go up to like four times,360,audio-keyboard-response,,,,,
8,pilot,,15,,,,,,,,,,,0.0-361.0,,,,,,l,1781,,"
      <center>
        <div id=""clip1"" class=""visual"">Clip 1<p>Press ""S""</p></div>
        <div id=""clip2"" class=""visual"">Clip 2<p>Press ""L""</p></div>
      </center>
      <p style=""text-align:center"">Which clip sounds more like someone who was <b>born in Boston?</b></p>
    ",,,950396,,,361,html-keyboard-response,,,,,
8,pilot,F2_02,,,,,2.902938,,,,,female,,0.0-362.0,,,1,,,,,4.172461752,../audio/F2_02.WAV,,F2,953800,,Buy each other roses and give each other cards,362,audio-keyboard-response,,,,,
8,pilot,M3_04,,,,,2.564635,,,,,male,,0.0-363.0,,,2,,,,,3.351955307,../audio/M3_04.WAV,,M3,956366,,I hurt my knee quite badly,363,audio-keyboard-response,,,,,
8,pilot,,16,,,,,,,,,,,0.0-364.0,,,,,,,,,"
      <center>
        <div id=""clip1"" class=""visual"">Clip 1<p>Press ""S""</p></div>
        <div id=""clip2"" class=""visual"">Clip 2<p>Press ""L""</p></div>
      </center>
      <p style=""text-align:center"">Which clip sounds more like someone who was <b>born in Boston?</b></p>
    ",,,958368,,,364,html-keyboard-response,,,,,
8,pilot,F4_01,,,,,1.835479,,,,,female,,0.0-365.0,,,1,,,,,1.835479,../audio/F4_01.WAV,,F4,960704,,Are on the same level I think that's ok,365,audio-keyboard-response,,,,,
8,pilot,F5_01,,,,,1.144573,,,,,female,,0.0-366.0,,,2,,,,,1.144573,../audio/F5_01.WAV,,F5,961849,,But people have been telling me things about Junior,366,audio-keyboard-response,,,,,
8,pilot,,17,,,,,,,,,,,0.0-367.0,,,,,,l,737,,"
      <center>
        <div id=""clip1"" class=""visual"">Clip 1<p>Press ""S""</p></div>
        <div id=""clip2"" class=""visual"">Clip 2<p>Press ""L""</p></div>
      </center>
      <p style=""text-align:center"">Which clip sounds more like someone who was <b>born in Boston?</b></p>
    ",,,963852,,,367,html-keyboard-response,,,,,
8,pilot,F1_03,,,,,2.034542,,,,,female,,0.0-368.0,,,1,,,,,2.999143102,../audio/F1_03.WAV,,F1,966388,,Certificate of sorts right a Youtube plaque,368,audio-keyboard-response,,,,,
8,pilot,F3_03,,,,,1.738271,,,,,female,,0.0-369.0,,,2,,,,,4.746835443,../audio/F3_03.WAV,,F3,968127,,A lot of people put their stuff up there,369,audio-keyboard-response,,,,,
8,pilot,,18,,,,,,,,,,,0.0-370.0,,,,,,,,,"
      <center>
        <div id=""clip1"" class=""visual"">Clip 1<p>Press ""S""</p></div>
        <div id=""clip2"" class=""visual"">Clip 2<p>Press ""L""</p></div>
      </center>
      <p style=""text-align:center"">Which clip sounds more like someone who was <b>born in Boston?</b></p>
    ",,,970129,,,370,html-keyboard-response,,,,,
8,pilot,F1_04,,,,,3.175875,,,,,female,,0.0-371.0,,,1,,,,,3.68852459,../audio/F1_04.WAV,,F1,973806,,Believe that you cannot feel anything while you're doing,371,audio-keyboard-response,,,,,
8,pilot,M1_02,,,,,1.508312,,,,,male,,0.0-372.0,,,2,,,,,4.539559014,../audio/M1_02.WAV,,M1,975316,,So you you don't have to like,372,audio-keyboard-response,,,,,
8,pilot,,19,,,,,,,,,,,0.0-373.0,,,,,,,,,"
      <center>
        <div id=""clip1"" class=""visual"">Clip 1<p>Press ""S""</p></div>
        <div id=""clip2"" class=""visual"">Clip 2<p>Press ""L""</p></div>
      </center>
      <p style=""text-align:center"">Which clip sounds more like someone who was <b>born in Boston?</b></p>
    ",,,977317,,,373,html-keyboard-response,,,,,
8,pilot,M4_02,,,,,1.785187,,,,,male,,0.0-374.0,,,1,,,,,4.104669061,../audio/M4_02.WAV,,M4,979604,,I took the ATM card and I didn't,374,audio-keyboard-response,,,,,
8,pilot,M4_03,,,,,2.137188,,,,,male,,0.0-375.0,,,2,,,,,3.298153034,../audio/M4_03.WAV,,M4,981742,,Be a son to him,375,audio-keyboard-response,,,,,
8,pilot,,20,,,,,,,,,,,0.0-376.0,,,,,,s,1826,,"
      <center>
        <div id=""clip1"" class=""visual"">Clip 1<p>Press ""S""</p></div>
        <div id=""clip2"" class=""visual"">Clip 2<p>Press ""L""</p></div>
      </center>
      <p style=""text-align:center"">Which clip sounds more like someone who was <b>born in Boston?</b></p>
    ",,,983745,,,376,html-keyboard-response,,,,,
8,pilot,,,[],,,,,,,,,,0.0-377.0,,,,,,"{'age': '1999', 'race': ['White'], 'P0_Q0': None, 'gender': 'Female', 'income': 30000, 'education': 'Undergraduate degree', 'zipcode_current': '10065', 'zipcode_growing_up': '20007', 'zipcode_adult_years': '6015', 'zipcode_teenage_years': '20007'}",108946,,,,,1092755,,,377,survey,,,,,
8,pilot,,,,,,,,,,,,,0.0-378.0,,,,,,"{'lang1': 'English', 'lang2': 'Spanish', 'lang3': '', 'lang4': '', 'lang5': ''}",9296,,,,,1102304,,,378,survey-html-form,,,,,
8,pilot,,,[],,,,,,,,,,0.0-379.0,,,,,,"{'boston_accent_area': 'n/a', 'boston_accent_opinion': 'Not sure', 'family_generations_in_area': '1'}",13055,,,,,1115619,,,379,survey,,,,,
8,pilot,,,[],,,,,,,,,,0.0-380.0,,,,,,"{'speak_with': 'No', 'Boston_people': 0, 'boston_family': 'No', 'boston_friends': 'No', 'immigrant_percentage': '10%'}",20689,,,,,1136570,,,380,survey,,,,,
8,pilot,,,,,,,,,,,,,0.0-381.0,,,,,,"{'word1': ""short 'a'"", 'word2': ""'r' dropping"", 'word3': 'flat'}",199748,,,,,1336576,,,381,survey-html-form,,,,,
8,pilot,,,[],,,,,,,,,,0.0-382.0,,,,,,"{'community_issues': 'n/a', 'preserve_culture_importance': 'Very important', 'neighborhood_changes_opinion': 'n/a'}",13372,,,,,1350203,,,382,survey,,,,,
8,pilot,,,,,,,,,,,,,0.0-383.0,,,,,"[1, 0, 2, 3]","{'likert_unity': 3, 'likert_identity': 2, 'likert_disappear': 2, 'likert_badenglish': 0}",12775,,,,,1363228,,,383,survey-likert,,,,,
8,pilot,,,,,,,,,,,,,0.0-384.0,,,,,[0],{'Q0': 3},40429,,,,,1403908,,,384,survey-likert,,,,,
8,pilot,,,[],,,,,,,,,,0.0-385.0,,,,,,{'futurestudies': 'Yes'},5553,,,,,1409719,,,385,survey,,,,,
8,pilot,,,,,,,,,,,,,0.0-386.0,,,,,,{'payment': 'racheldvv@gmail.com'},7504,,,,,1417478,,,386,survey-text,,,,,
8,pilot,,,,,,,,,,,,,0.0-387.0,,,,,,0,1661,,"
        <div class=""text"" id=""trial"">
            <p>Thank you for completing the experiment!</p>
            <p>We will contact you soon to arrange for participant reimbursement.</p>
            <p>Please click the ""Submit"" button to submit your responses and complete the study.</p>
        </div>
      ",,,1419393,,,387,html-button-response,,,,,
7,pilot,,,,,,,[],[],[],,,,0.0-0.0,,,,,,,,,,True,,529,False,,0,preload,,,,,
7,pilot,,,,,,,[],[],[],,,,0.0-1.0,,,,,,,,,,True,,2074,False,,1,preload,,,,,
7,pilot,,,,safari,17.6.0,,,,,True,,1040,0.0-2.0,True,False,,Mac OS,,,,,,,,3854,,,2,browser-check,55.97,True,True,1792,
5,pilot,,,,,,,[],[],[],,,,0.0-0.0,,,,,,,,,,True,,681,False,,0,preload,,,,,
5,pilot,,,,,,,[],[],[],,,,0.0-1.0,,,,,,,,,,True,,2560,False,,1,preload,,,,,
5,pilot,,,,crios,131.0.6778,,,,,False,,1681,0.0-2.0,True,True,,iOS,,,,,,,,3823,,,2,browser-check,60.54,True,True,980,
4,pilot,,,,,,,[],[],[],,,,0.0-0.0,,,,,,,,,,True,,956,False,,0,preload,,,,,
