"success","timeout","failed_images","failed_audio","failed_video","trial_type","trial_index","time_elapsed","internal_node_id","width","height","webaudio","browser","browser_version","mobile","os","fullscreen","vsync_rate","webcam","microphone","rt","stimulus","response","ID","talker","gender","order","duration","speech_rate","transcript","Order","clip1_id","clip2_id","clip1_speaker","clip2_speaker","clip1_gender","clip2_gender","clip1_transcript","clip2_transcript","block_type","block_number","counterbalance_id","accuracy","question_order"
"true","false","[]","[]","[]","preload","0","455","0.0-0.0","","","","","","","","","","","","","","","","","","","","","","","","","","","","","","","","","","",""
"true","false","[]","[]","[]","preload","1","2056","0.0-1.0","","","","","","","","","","","","","","","","","","","","","","","","","","","","","","","","","","",""
"","","","","","browser-check","2","3309","0.0-2.0","1440","617","true","chrome","128.0.0","false","Mac OS","true","60.65","true","true","","","","","","","","","","","","","","","","","","","","","","","",""
"","","","","","html-button-response","3","16185","0.0-3.0","","","","","","","","","","","","12621","
        <div class=""text"" id=""instruction"" >
            <img src=""../images/stanford_logo.png"" alt=""stanford logo"" width=""180"" height=""80"">
            <p><b>Only complete this study if you are a Massachussets resident who is 18 years old or older.</b></p>
            <p>Please share this link with other people you know who live in the area, but <u>do not participate in this study more than once</u>.
            <BR>You will not be compensated more than once.</p> 
            <p>In this experiment, you will be listening to pairs of audio clips.</p>
            <p>Each pair of audio clips will be played once in consecutive order. Your task is to decide which one of the clips sounds like the speaker was born in Boston.</p>
            <p>Please ensure that you use earphones or headphones for the duration of this experiment.</p>
            <p>This experiment should be completed on a <b><u>desktop or laptop</u></b> using the <b><u>Google Chrome browser</u></b>.</p>
            <p>The experiment will take approximately 20 minutes. You will be compensated as advertised on Prolific for your time.</p>
        </div>
      ","0","","","","","","","","","","","","","","","","","","","","",""
"","","","","","html-button-response","4","22701","0.0-4.0","","","","","","","","","","","","6262","<p><strong>Thank you for your participation in this study. Please read the protocol below.</strong></p>
        <p>Protocol Director: Robert Hawkins</P
        <p>Protocol Title: Communication and social cognition in natural audiovisual contexts IRB# 77226</p>
        <p>DESCRIPTION: You are invited to participate in a research study about language and communication. 
        The purpose of the research is to understand how you interact and communicate with other people in naturalistic settings as a fluent English speaker. 
        This research will be conducted through the Prolific platform, including participants from the US, UK, and Canada. 
        If you decide to participate in this research, you will play a communication game in a group with one or more partners.</p>
        <p>TIME INVOLVEMENT: The task will last the amount of time advertised on Prolific. You are free to withdraw from the study at any time.</p>
        <p>RISKS AND BENEFITS: You may become frustrated if your partner gets distracted, or experience discomfort if other participants in your group 
        send text that is inappropriate for the task. We ask you to please be respectful of other participants you might be
        interacting with to mitigate these risks. You may also experience discomfort when being asked to discuss or challenge emotionally salient political beliefs. Study data will be
        stored securely, in compliance with Stanford University standards, minimizing the risk of confidentiality breach. This study advances our scientific understanding of how people
        communication and collaborate in naturalistic settings. This study may lead to further
        insights about what can go wrong in teamwork, suggest potential interventions to
        overcome these barriers, and help to develop assistive technologies that collaborate with
        human partners. We cannot and do not guarantee or promise that you will receive any benefits from this study.</p>
        <p>PAYMENTS: You will receive payment in the amount advertised on Prolific. If you do not complete this study, you will receive prorated payment based on the time that you have
        spent. Additionally, you may be eligible for bonus payments as described in the instructions.</p>
        <p> PARTICIPANTS RIGHTS: If you have read this form and have decided to participate in this project, please understand your participation is voluntary and you have the right
        to withdraw your consent or discontinue participation at any time without penalty or loss of benefits to which you are otherwise entitled. The alternative
        is not to participate. You have the right to refuse to answer particular questions. The results of this research study may be presented at scientific or professional meetings or
        published in scientific journals. Your individual privacy will be maintained in all published and written data resulting from the study. In accordance with scientific norms, the data
        from this study may be used or shared with other researchers for future research (after removing personally identifying information) without additional consent from you.</p>
        <p>CONTACT INFORMATION: Questions: If you have any questions, concerns or complaints about this research, its procedures, risks and benefits, contact the Protocol Director, Robert Hawkins (rdhawkins@stanford.edu, 217-549-6923).</p>
        <p>Independent Contact: If you are not satisfied with how this study is being conducted, or if you have any concerns, complaints, or general questions about the research or your rights as a participant, please contact the Stanford Institutional Review Board (IRB) to
        speak to someone independent of the research team at 650-723-2480 or toll free at 1-866-680-2906, or email at irbnonmed@stanford.edu. You can also write to the Stanford IRB, Stanford University, 1705 El Camino Real, Palo Alto, CA 94306. Please save or print a
        copy of this page for your records.</p>
        <p>If you agree to participate in this research, press the <strong>CONTINUE</strong> button to begin.</p> 
      ","0","","","","","","","","","","","","","","","","","","","","",""
"","","","","","cloze","5","32581","0.0-5.0","","","","","","","","","","","","","","[""friends""]","","","","","","","","","","","","","","","","","","","","",""
"","","","","","html-button-response","6","46599","0.0-6.0","","","","","","","","","","","","13765","
    <center>
      <div class=""instruction-box"">
        <p>You will now begin the practice trials.</p>
        <p>In each trial, two audio clips will play one after another. You will hear a variety of sentences and phrases spoken by different talkers.</p>
        <p>Each audio clip will only be played once and you will not be able to replay them.</p>
        <p><strong>Your task is to decide which clip sounds more like the speaker was born in Boston.</strong></p>
        <p><strong>These clips come from a range of different people so they might not all sound like your typical Bostonian, but just make your best guess as quickly as possible.</strong></p>        
  </center>
        ","0","","","","","","","","","","","","","","","","","","","","",""
"","","","","","html-button-response","7","59578","0.0-7.0","","","","","","","","","","","","12725","
    <center>   
      <div class=""instruction-box"">   
        <p>Please place your left index finger on the ""S"" key and your right index finger on the ""L"" key.</p>
        <p><img src=""../procedures/keyboard.png"" width=""500"" style=""margin-top:-10px""></p>
        <p>If the <strong>first clip</strong> sounds more like someone who was born in Boston, please <strong>press S</strong>.</p>
        <p>If the <strong>second clip</strong> sounds more like someone who was born in Boston, please <strong>press L</strong>.</p>
        <p><b>Respond as quickly as possible when both clips have finished playing.</b></p>
        <p>This is a timed task. If you do not respond in time, the next question will appear automatically.</p>
        <p><b>Please answer as quickly and accurately as possible.</b></p>
    </center>
        ","0","","","","","","","","","","","","","","","","","","","","",""
"","","","","","audio-keyboard-response","8","63836","0.0-8.0","","","","","","","","","","","","null","../practice/trial1_clip1.WAV","null","practice_trial1_clip1","practice_speaker","unknown","1","4","unknown","practice_transcript","","","","","","","","","","","","","",""
"","","","","","audio-keyboard-response","9","67838","0.0-9.0","","","","","","","","","","","","null","../practice/trial1_clip2.WAV","l","practice_trial1_clip2","practice_speaker","unknown","2","4","unknown","practice_transcript","","","","","","","","","","","","","",""
"","","","","","html-keyboard-response","10","69843","0.0-10.0","","","","","","","","","","","","299","
        <center>
            <div id=""clip1"" class=""visual"">Clip 1<p>Press ""S""</p></div>
            <div id=""clip2"" class=""visual"">Clip 2<p>Press ""L""</p></div>
        </center>
        <p style=""text-align:center"">Which clip sounds more like someone who was born in Boston?</p>","l","","","","","","","","1","practice_trial1_clip1","practice_trial1_clip2","","","","","","","","","","",""
"","","","","","audio-keyboard-response","11","75347","0.0-11.0","","","","","","","","","","","","null","../practice/trial2_clip1.WAV","null","practice_trial2_clip1","practice_speaker","unknown","1","4","unknown","practice_transcript","","","","","","","","","","","","","",""
"","","","","","audio-keyboard-response","12","79349","0.0-12.0","","","","","","","","","","","","null","../practice/trial2_clip2.WAV","l","practice_trial2_clip2","practice_speaker","unknown","2","4","unknown","practice_transcript","","","","","","","","","","","","","",""
"","","","","","html-keyboard-response","13","81352","0.0-13.0","","","","","","","","","","","","656","
        <center>
            <div id=""clip1"" class=""visual"">Clip 1<p>Press ""S""</p></div>
            <div id=""clip2"" class=""visual"">Clip 2<p>Press ""L""</p></div>
        </center>
        <p style=""text-align:center"">Which clip sounds more like someone who was born in Boston?</p>","l","","","","","","","","2","practice_trial2_clip1","practice_trial2_clip2","","","","","","","","","","",""
"","","","","","audio-keyboard-response","14","86856","0.0-14.0","","","","","","","","","","","","null","../practice/trial3_clip1.WAV","null","practice_trial3_clip1","practice_speaker","unknown","1","4","unknown","practice_transcript","","","","","","","","","","","","","",""
"","","","","","audio-keyboard-response","15","90858","0.0-15.0","","","","","","","","","","","","null","../practice/trial3_clip2.WAV","l","practice_trial3_clip2","practice_speaker","unknown","2","4","unknown","practice_transcript","","","","","","","","","","","","","",""
"","","","","","html-keyboard-response","16","92861","0.0-16.0","","","","","","","","","","","","444","
        <center>
            <div id=""clip1"" class=""visual"">Clip 1<p>Press ""S""</p></div>
            <div id=""clip2"" class=""visual"">Clip 2<p>Press ""L""</p></div>
        </center>
        <p style=""text-align:center"">Which clip sounds more like someone who was born in Boston?</p>","l","","","","","","","","3","practice_trial3_clip1","practice_trial3_clip2","","","","","","","","","","",""
"","","","","","html-button-response","17","101570","0.0-17.0","","","","","","","","","","","","7207","
    <center>
      <div class=""instruction-box"">
        <p>You will now begin the experiment.</p>
        <p>In each trial, two audio clips will play one after another. You will hear a variety of sentences and phrases spoken by different talkers.</p>
        <p>Each audio clip will only be played once and you will not be able to replay them.</p>
        <p><strong>Your task is to decide which clip sounds more like someone who was born in Boston.</strong></p>
        <p><strong>These clips come from a range of different people so they might not all sound like your typical Bostonian, but please do your best to respond as quickly as possible.</strong></p>
    </center>
        ","0","","","","","","","","","","","","","","","","","","","","",""
"","","","","","html-button-response","18","104468","0.0-18.0","","","","","","","","","","","","2644","
    <center>
      <div class=""instruction-box"">
        <p>Please place your left index finger on the ""S"" key and your right index finger on the ""L"" key.</p>
        <p><img src=""../procedures/keyboard.png"" width=""500"" style=""margin-top:-10px""></p>
        <p>If the <strong>first clip</strong> sounds more like someone who was born in Boston, please <strong>press S</strong>.</p>
        <p>If the <strong>second clip</strong> sounds more like someone who was born in Boston, please <strong>press L</strong>.</p>
        <p><b>Respond as quickly as possible when both clips have finished playing.</b></p>
        <p>This is a timed task. If you do not respond in time, the next question will appear automatically.</p>
        <p><b>Please answer as quickly and accurately as possible.</b></p>
    </center>
        ","0","","","","","","","","","","","","","","","","","","","","",""
"","","","","","audio-keyboard-response","19","106932","0.0-19.0","","","","","","","","","","","","null","../audio/M3_02.WAV","null","M3_02","M3","male","1","1.709750","2.924","And then on Sunday morning","","","","","","","","","","","","","",""
"","","","","","audio-keyboard-response","20","109664","0.0-20.0","","","","","","","","","","","","null","../audio/F1_01.WAV","s","F1_01","F1","female","2","2.729260","1.832","because of the limited space.","","","","","","","","","","","","","",""
"","","","","","html-keyboard-response","21","111667","0.0-21.0","","","","","","","","","","","","550","
            <center>
                <div id=""clip1"" class=""visual"">Clip 1<p>Press ""S""</p></div>
                <div id=""clip2"" class=""visual"">Clip 2<p>Press ""L""</p></div>
            </center>
            <p style=""text-align:center"">Which clip sounds more like someone who was born in Boston?</p>","s","","","","","","","","1","M3_02","F1_01","M3","F1","male","female","And then on Sunday morning","because of the limited space.","short","1","0","",""
"","","","","","audio-keyboard-response","22","115900","0.0-22.0","","","","","","","","","","","","null","../audio/M5_02.WAV","null","M5_02","M5","male","1","2.229229","2.244","Because back in the seventies,","","","","","","","","","","","","","",""
"","","","","","audio-keyboard-response","23","118818","0.0-23.0","","","","","","","","","","","","null","../audio/F4_02.WAV","s","F4_02","F4","female","2","2.916635","2.058","Yeah, a little bit, like elementary school.","","","","","","","","","","","","","",""
"","","","","","html-keyboard-response","24","120822","0.0-24.0","","","","","","","","","","","","419","
            <center>
                <div id=""clip1"" class=""visual"">Clip 1<p>Press ""S""</p></div>
                <div id=""clip2"" class=""visual"">Clip 2<p>Press ""L""</p></div>
            </center>
            <p style=""text-align:center"">Which clip sounds more like someone who was born in Boston?</p>","s","","","","","","","","2","M5_02","F4_02","M5","F4","male","female","Because back in the seventies,","Yeah, a little bit, like elementary school.","short","1","0","",""
"","","","","","audio-keyboard-response","25","125111","0.0-25.0","","","","","","","","","","","","null","../audio/F1_02.WAV","null","F1_02","F1","female","1","2.286385","2.187","clothes or fashion for that matter.","","","","","","","","","","","","","",""
"","","","","","audio-keyboard-response","26","125949","0.0-26.0","","","","","","","","","","","","null","../audio/F5_01.WAV","s","F5_01","F5","female","2","0.835490","3.592","Oh my god.","","","","","","","","","","","","","",""
"","","","","","html-keyboard-response","27","127952","0.0-27.0","","","","","","","","","","","","806","
            <center>
                <div id=""clip1"" class=""visual"">Clip 1<p>Press ""S""</p></div>
                <div id=""clip2"" class=""visual"">Clip 2<p>Press ""L""</p></div>
            </center>
            <p style=""text-align:center"">Which clip sounds more like someone who was born in Boston?</p>","s","","","","","","","","3","F1_02","F5_01","F1","F5","female","female","clothes or fashion for that matter.","Oh my god.","short","1","0","",""
"","","","","","audio-keyboard-response","28","131858","0.0-28.0","","","","","","","","","","","","null","../audio/F2_02.WAV","null","F2_02","F2","female","1","1.902969","2.627","And so my mother also","","","","","","","","","","","","","",""
"","","","","","audio-keyboard-response","29","133518","0.0-29.0","","","","","","","","","","","","null","../audio/M3_01.WAV","s","M3_01","M3","male","2","1.659469","2.411","to further my education.","","","","","","","","","","","","","",""
"","","","","","html-keyboard-response","30","135522","0.0-30.0","","","","","","","","","","","","553","
            <center>
                <div id=""clip1"" class=""visual"">Clip 1<p>Press ""S""</p></div>
                <div id=""clip2"" class=""visual"">Clip 2<p>Press ""L""</p></div>
            </center>
            <p style=""text-align:center"">Which clip sounds more like someone who was born in Boston?</p>","s","","","","","","","","4","F2_02","M3_01","F2","M3","female","male","And so my mother also","to further my education.","short","1","0","",""
"","","","","","audio-keyboard-response","31","138746","0.0-31.0","","","","","","","","","","","","null","../audio/M1_01.WAV","null","M1_01","M1","male","1","1.220375","4.095","being in the medical field,","","","","","","","","","","","","","",""
"","","","","","audio-keyboard-response","32","139773","0.0-32.0","","","","","","","","","","","","null","../audio/M2_01.WAV","l","M2_01","M2","male","2","1.025729","3.900","being in the squallor.","","","","","","","","","","","","","",""
"","","","","","html-keyboard-response","33","141776","0.0-33.0","","","","","","","","","","","","372","
            <center>
                <div id=""clip1"" class=""visual"">Clip 1<p>Press ""S""</p></div>
                <div id=""clip2"" class=""visual"">Clip 2<p>Press ""L""</p></div>
            </center>
            <p style=""text-align:center"">Which clip sounds more like someone who was born in Boston?</p>","l","","","","","","","","5","M1_01","M2_01","M1","M2","male","male","being in the medical field,","being in the squallor.","short","1","0","",""
"","","","","","audio-keyboard-response","34","145434","0.0-34.0","","","","","","","","","","","","null","../audio/F2_01.WAV","null","F2_01","F2","female","1","1.654760","3.021","and then upstairs in her apartment,","","","","","","","","","","","","","",""
"","","","","","audio-keyboard-response","35","149703","0.0-35.0","","","","","","","","","","","","null","../audio/F3_01.WAV","s","F3_01","F3","female","2","4.267563","1.875","my parents, my two sisters, and my two brothers.","","","","","","","","","","","","","",""
"","","","","","html-keyboard-response","36","151706","0.0-36.0","","","","","","","","","","","","547","
            <center>
                <div id=""clip1"" class=""visual"">Clip 1<p>Press ""S""</p></div>
                <div id=""clip2"" class=""visual"">Clip 2<p>Press ""L""</p></div>
            </center>
            <p style=""text-align:center"">Which clip sounds more like someone who was born in Boston?</p>","s","","","","","","","","6","F2_01","F3_01","F2","F3","female","female","and then upstairs in her apartment,","my parents, my two sisters, and my two brothers.","short","1","0","",""
"","","","","","audio-keyboard-response","37","156374","0.0-37.0","","","","","","","","","","","","null","../audio/M2_02.WAV","null","M2_02","M2","male","1","2.665333","3.001","But later on, when I traveled quite a bit,","","","","","","","","","","","","","",""
"","","","","","audio-keyboard-response","38","157376","0.0-38.0","","","","","","","","","","","","null","../audio/M1_02.WAV","s","M1_02","M1","male","2","0.999906","2.000","parallel ways.","","","","","","","","","","","","","",""
"","","","","","html-keyboard-response","39","159378","0.0-39.0","","","","","","","","","","","","605","
            <center>
                <div id=""clip1"" class=""visual"">Clip 1<p>Press ""S""</p></div>
                <div id=""clip2"" class=""visual"">Clip 2<p>Press ""L""</p></div>
            </center>
            <p style=""text-align:center"">Which clip sounds more like someone who was born in Boston?</p>","s","","","","","","","","7","M2_02","M1_02","M2","M1","male","male","But later on, when I traveled quite a bit,","parallel ways.","short","1","0","",""
"","","","","","audio-keyboard-response","40","163133","0.0-40.0","","","","","","","","","","","","null","../audio/F5_02.WAV","null","F5_02","F5","female","1","1.750198","2.286","My father also, you know,","","","","","","","","","","","","","",""
"","","","","","audio-keyboard-response","41","164018","0.0-41.0","","","","","","","","","","","","null","../audio/M4_01.WAV","s","M4_01","M4","male","2","0.883969","3.393","yeah last fall","","","","","","","","","","","","","",""
"","","","","","html-keyboard-response","42","166020","0.0-42.0","","","","","","","","","","","","477","
            <center>
                <div id=""clip1"" class=""visual"">Clip 1<p>Press ""S""</p></div>
                <div id=""clip2"" class=""visual"">Clip 2<p>Press ""L""</p></div>
            </center>
            <p style=""text-align:center"">Which clip sounds more like someone who was born in Boston?</p>","s","","","","","","","","8","F5_02","M4_01","F5","M4","female","male","My father also, you know,","yeah last fall","short","1","0","",""
"","","","","","audio-keyboard-response","43","169886","0.0-43.0","","","","","","","","","","","","null","../audio/M5_01.WAV","null","M5_01","M5","male","1","1.863625","3.755","half an hour, probably fourty five minutes away.","","","","","","","","","","","","","",""
"","","","","","audio-keyboard-response","44","171054","0.0-44.0","","","","","","","","","","","","null","../audio/F3_02.WAV","s","F3_02","F3","female","2","1.165760","2.574","as homeless people.","","","","","","","","","","","","","",""
"","","","","","html-keyboard-response","45","173056","0.0-45.0","","","","","","","","","","","","676","
            <center>
                <div id=""clip1"" class=""visual"">Clip 1<p>Press ""S""</p></div>
                <div id=""clip2"" class=""visual"">Clip 2<p>Press ""L""</p></div>
            </center>
            <p style=""text-align:center"">Which clip sounds more like someone who was born in Boston?</p>","s","","","","","","","","9","M5_01","F3_02","M5","F3","male","female","half an hour, probably fourty five minutes away.","as homeless people.","short","1","0","",""
"","","","","","audio-keyboard-response","46","176895","0.0-46.0","","","","","","","","","","","","null","../audio/F4_01.WAV","null","F4_01","F4","female","1","1.835479","2.724","Probably right before I turned six.","","","","","","","","","","","","","",""
"","","","","","audio-keyboard-response","47","179435","0.0-47.0","","","","","","","","","","","","null","../audio/M4_02.WAV","s","M4_02","M4","male","2","2.538281","2.364","the most intimate group of friends,","","","","","","","","","","","","","",""
"","","","","","html-keyboard-response","48","181437","0.0-48.0","","","","","","","","","","","","484","
            <center>
                <div id=""clip1"" class=""visual"">Clip 1<p>Press ""S""</p></div>
                <div id=""clip2"" class=""visual"">Clip 2<p>Press ""L""</p></div>
            </center>
            <p style=""text-align:center"">Which clip sounds more like someone who was born in Boston?</p>","s","","","","","","","","10","F4_01","M4_02","F4","M4","female","male","Probably right before I turned six.","the most intimate group of friends,","short","1","0","",""
"","","","","","audio-keyboard-response","49","184276","0.0-49.0","","","","","","","","","","","","null","../audio/F5_01.WAV","null","F5_01","F5","female","1","0.835490","3.592","Oh my god.","","","","","","","","","","","","","",""
"","","","","","audio-keyboard-response","50","185304","0.0-50.0","","","","","","","","","","","","null","../audio/M2_01.WAV","s","M2_01","M2","male","2","1.025729","3.900","being in the squallor.","","","","","","","","","","","","","",""
"","","","","","html-keyboard-response","51","187306","0.0-51.0","","","","","","","","","","","","763","
            <center>
                <div id=""clip1"" class=""visual"">Clip 1<p>Press ""S""</p></div>
                <div id=""clip2"" class=""visual"">Clip 2<p>Press ""L""</p></div>
            </center>
            <p style=""text-align:center"">Which clip sounds more like someone who was born in Boston?</p>","s","","","","","","","","11","F5_01","M2_01","F5","M2","female","male","Oh my god.","being in the squallor.","short","1","0","",""
"","","","","","audio-keyboard-response","52","190475","0.0-52.0","","","","","","","","","","","","null","../audio/F3_02.WAV","null","F3_02","F3","female","1","1.165760","2.574","as homeless people.","","","","","","","","","","","","","",""
"","","","","","audio-keyboard-response","53","191697","0.0-53.0","","","","","","","","","","","","null","../audio/M1_01.WAV","s","M1_01","M1","male","2","1.220375","4.095","being in the medical field,","","","","","","","","","","","","","",""
"","","","","","html-keyboard-response","54","193700","0.0-54.0","","","","","","","","","","","","475","
            <center>
                <div id=""clip1"" class=""visual"">Clip 1<p>Press ""S""</p></div>
                <div id=""clip2"" class=""visual"">Clip 2<p>Press ""L""</p></div>
            </center>
            <p style=""text-align:center"">Which clip sounds more like someone who was born in Boston?</p>","s","","","","","","","","12","F3_02","M1_01","F3","M1","female","male","as homeless people.","being in the medical field,","short","1","0","",""
"","","","","","audio-keyboard-response","55","197567","0.0-55.0","","","","","","","","","","","","null","../audio/M5_01.WAV","null","M5_01","M5","male","1","1.863625","3.755","half an hour, probably fourty five minutes away.","","","","","","","","","","","","","",""
"","","","","","audio-keyboard-response","56","200486","0.0-56.0","","","","","","","","","","","","null","../audio/F4_02.WAV","s","F4_02","F4","female","2","2.916635","2.058","Yeah, a little bit, like elementary school.","","","","","","","","","","","","","",""
"","","","","","html-keyboard-response","57","202487","0.0-57.0","","","","","","","","","","","","397","
            <center>
                <div id=""clip1"" class=""visual"">Clip 1<p>Press ""S""</p></div>
                <div id=""clip2"" class=""visual"">Clip 2<p>Press ""L""</p></div>
            </center>
            <p style=""text-align:center"">Which clip sounds more like someone who was born in Boston?</p>","s","","","","","","","","13","M5_01","F4_02","M5","F4","male","female","half an hour, probably fourty five minutes away.","Yeah, a little bit, like elementary school.","short","1","0","",""
"","","","","","audio-keyboard-response","58","208759","0.0-58.0","","","","","","","","","","","","null","../audio/F3_01.WAV","null","F3_01","F3","female","1","4.267563","1.875","my parents, my two sisters, and my two brothers.","","","","","","","","","","","","","",""
"","","","","","audio-keyboard-response","59","210663","0.0-59.0","","","","","","","","","","","","null","../audio/F2_02.WAV","l","F2_02","F2","female","2","1.902969","2.627","And so my mother also","","","","","","","","","","","","","",""
"","","","","","html-keyboard-response","60","212665","0.0-60.0","","","","","","","","","","","","542","
            <center>
                <div id=""clip1"" class=""visual"">Clip 1<p>Press ""S""</p></div>
                <div id=""clip2"" class=""visual"">Clip 2<p>Press ""L""</p></div>
            </center>
            <p style=""text-align:center"">Which clip sounds more like someone who was born in Boston?</p>","l","","","","","","","","14","F3_01","F2_02","F3","F2","female","female","my parents, my two sisters, and my two brothers.","And so my mother also","short","1","0","",""
"","","","","","audio-keyboard-response","61","216418","0.0-61.0","","","","","","","","","","","","null","../audio/F5_02.WAV","null","F5_02","F5","female","1","1.750198","2.286","My father also, you know,","","","","","","","","","","","","","",""
"","","","","","audio-keyboard-response","62","219149","0.0-62.0","","","","","","","","","","","","null","../audio/F1_01.WAV","s","F1_01","F1","female","2","2.729260","1.832","because of the limited space.","","","","","","","","","","","","","",""
"","","","","","html-keyboard-response","63","221152","0.0-63.0","","","","","","","","","","","","417","
            <center>
                <div id=""clip1"" class=""visual"">Clip 1<p>Press ""S""</p></div>
                <div id=""clip2"" class=""visual"">Clip 2<p>Press ""L""</p></div>
            </center>
            <p style=""text-align:center"">Which clip sounds more like someone who was born in Boston?</p>","s","","","","","","","","15","F5_02","F1_01","F5","F1","female","female","My father also, you know,","because of the limited space.","short","1","0","",""
"","","","","","audio-keyboard-response","64","225822","0.0-64.0","","","","","","","","","","","","null","../audio/M2_02.WAV","null","M2_02","M2","male","1","2.665333","3.001","But later on, when I traveled quite a bit,","","","","","","","","","","","","","",""
"","","","","","audio-keyboard-response","65","227533","0.0-65.0","","","","","","","","","","","","null","../audio/M3_02.WAV","s","M3_02","M3","male","2","1.709750","2.924","And then on Sunday morning","","","","","","","","","","","","","",""
"","","","","","html-keyboard-response","66","229536","0.0-66.0","","","","","","","","","","","","691","
            <center>
                <div id=""clip1"" class=""visual"">Clip 1<p>Press ""S""</p></div>
                <div id=""clip2"" class=""visual"">Clip 2<p>Press ""L""</p></div>
            </center>
            <p style=""text-align:center"">Which clip sounds more like someone who was born in Boston?</p>","s","","","","","","","","16","M2_02","M3_02","M2","M3","male","male","But later on, when I traveled quite a bit,","And then on Sunday morning","short","1","0","",""
"","","","","","audio-keyboard-response","67","232539","0.0-67.0","","","","","","","","","","","","null","../audio/M1_02.WAV","null","M1_02","M1","male","1","0.999906","2.000","parallel ways.","","","","","","","","","","","","","",""
"","","","","","audio-keyboard-response","68","234200","0.0-68.0","","","","","","","","","","","","null","../audio/M3_01.WAV","l","M3_01","M3","male","2","1.659469","2.411","to further my education.","","","","","","","","","","","","","",""
"","","","","","html-keyboard-response","69","236203","0.0-69.0","","","","","","","","","","","","404","
            <center>
                <div id=""clip1"" class=""visual"">Clip 1<p>Press ""S""</p></div>
                <div id=""clip2"" class=""visual"">Clip 2<p>Press ""L""</p></div>
            </center>
            <p style=""text-align:center"">Which clip sounds more like someone who was born in Boston?</p>","l","","","","","","","","17","M1_02","M3_01","M1","M3","male","male","parallel ways.","to further my education.","short","1","0","",""
"","","","","","audio-keyboard-response","70","239090","0.0-70.0","","","","","","","","","","","","null","../audio/M4_01.WAV","null","M4_01","M4","male","1","0.883969","3.393","yeah last fall","","","","","","","","","","","","","",""
"","","","","","audio-keyboard-response","71","240928","0.0-71.0","","","","","","","","","","","","null","../audio/F4_01.WAV","l","F4_01","F4","female","2","1.835479","2.724","Probably right before I turned six.","","","","","","","","","","","","","",""
"","","","","","html-keyboard-response","72","242930","0.0-72.0","","","","","","","","","","","","469","
            <center>
                <div id=""clip1"" class=""visual"">Clip 1<p>Press ""S""</p></div>
                <div id=""clip2"" class=""visual"">Clip 2<p>Press ""L""</p></div>
            </center>
            <p style=""text-align:center"">Which clip sounds more like someone who was born in Boston?</p>","l","","","","","","","","18","M4_01","F4_01","M4","F4","male","female","yeah last fall","Probably right before I turned six.","short","1","0","",""
"","","","","","audio-keyboard-response","73","246588","0.0-73.0","","","","","","","","","","","","null","../audio/F2_01.WAV","null","F2_01","F2","female","1","1.654760","3.021","and then upstairs in her apartment,","","","","","","","","","","","","","",""
"","","","","","audio-keyboard-response","74","249129","0.0-74.0","","","","","","","","","","","","null","../audio/M4_02.WAV","s","M4_02","M4","male","2","2.538281","2.364","the most intimate group of friends,","","","","","","","","","","","","","",""
"","","","","","html-keyboard-response","75","251132","0.0-75.0","","","","","","","","","","","","109","
            <center>
                <div id=""clip1"" class=""visual"">Clip 1<p>Press ""S""</p></div>
                <div id=""clip2"" class=""visual"">Clip 2<p>Press ""L""</p></div>
            </center>
            <p style=""text-align:center"">Which clip sounds more like someone who was born in Boston?</p>","s","","","","","","","","19","F2_01","M4_02","F2","M4","female","male","and then upstairs in her apartment,","the most intimate group of friends,","short","1","0","",""
"","","","","","audio-keyboard-response","76","255423","0.0-76.0","","","","","","","","","","","","null","../audio/F1_02.WAV","null","F1_02","F1","female","1","2.286385","2.187","clothes or fashion for that matter.","","","","","","","","","","","","","",""
"","","","","","audio-keyboard-response","77","257653","0.0-77.0","","","","","","","","","","","","null","../audio/M5_02.WAV","s","M5_02","M5","male","2","2.229229","2.244","Because back in the seventies,","","","","","","","","","","","","","",""
"","","","","","html-keyboard-response","78","259657","0.0-78.0","","","","","","","","","","","","373","
            <center>
                <div id=""clip1"" class=""visual"">Clip 1<p>Press ""S""</p></div>
                <div id=""clip2"" class=""visual"">Clip 2<p>Press ""L""</p></div>
            </center>
            <p style=""text-align:center"">Which clip sounds more like someone who was born in Boston?</p>","s","","","","","","","","20","F1_02","M5_02","F1","M5","female","male","clothes or fashion for that matter.","Because back in the seventies,","short","1","0","",""
"","","","","","audio-keyboard-response","79","263890","0.0-79.0","","","","","","","","","","","","null","../audio/M5_02.WAV","null","M5_02","M5","male","1","2.229229","2.244","Because back in the seventies,","","","","","","","","","","","","","",""
"","","","","","audio-keyboard-response","80","266809","0.0-80.0","","","","","","","","","","","","null","../audio/F4_02.WAV","s","F4_02","F4","female","2","2.916635","2.058","Yeah, a little bit, like elementary school.","","","","","","","","","","","","","",""
"","","","","","html-keyboard-response","81","268811","0.0-81.0","","","","","","","","","","","","527","
            <center>
                <div id=""clip1"" class=""visual"">Clip 1<p>Press ""S""</p></div>
                <div id=""clip2"" class=""visual"">Clip 2<p>Press ""L""</p></div>
            </center>
            <p style=""text-align:center"">Which clip sounds more like someone who was born in Boston?</p>","s","","","","","","","","1","M5_02","F4_02","M5","F4","male","female","Because back in the seventies,","Yeah, a little bit, like elementary school.","short","2","0","",""
"","","","","","audio-keyboard-response","82","272523","0.0-82.0","","","","","","","","","","","","null","../audio/M3_02.WAV","null","M3_02","M3","male","1","1.709750","2.924","And then on Sunday morning","","","","","","","","","","","","","",""
"","","","","","audio-keyboard-response","83","273360","0.0-83.0","","","","","","","","","","","","null","../audio/F5_01.WAV","l","F5_01","F5","female","2","0.835490","3.592","Oh my god.","","","","","","","","","","","","","",""
"","","","","","html-keyboard-response","84","275362","0.0-84.0","","","","","","","","","","","","537","
            <center>
                <div id=""clip1"" class=""visual"">Clip 1<p>Press ""S""</p></div>
                <div id=""clip2"" class=""visual"">Clip 2<p>Press ""L""</p></div>
            </center>
            <p style=""text-align:center"">Which clip sounds more like someone who was born in Boston?</p>","l","","","","","","","","2","M3_02","F5_01","M3","F5","male","female","And then on Sunday morning","Oh my god.","short","2","0","",""
"","","","","","audio-keyboard-response","85","279906","0.0-85.0","","","","","","","","","","","","null","../audio/M4_02.WAV","null","M4_02","M4","male","1","2.538281","2.364","the most intimate group of friends,","","","","","","","","","","","","","",""
"","","","","","audio-keyboard-response","86","284192","0.0-86.0","","","","","","","","","","","","null","../audio/F3_01.WAV","l","F3_01","F3","female","2","4.267563","1.875","my parents, my two sisters, and my two brothers.","","","","","","","","","","","","","",""
"","","","","","html-keyboard-response","87","286195","0.0-87.0","","","","","","","","","","","","638","
            <center>
                <div id=""clip1"" class=""visual"">Clip 1<p>Press ""S""</p></div>
                <div id=""clip2"" class=""visual"">Clip 2<p>Press ""L""</p></div>
            </center>
            <p style=""text-align:center"">Which clip sounds more like someone who was born in Boston?</p>","l","","","","","","","","3","M4_02","F3_01","M4","F3","male","female","the most intimate group of friends,","my parents, my two sisters, and my two brothers.","short","2","0","",""
"","","","","","audio-keyboard-response","88","289852","0.0-88.0","","","","","","","","","","","","null","../audio/F2_01.WAV","null","F2_01","F2","female","1","1.654760","3.021","and then upstairs in her apartment,","","","","","","","","","","","","","",""
"","","","","","audio-keyboard-response","89","291757","0.0-89.0","","","","","","","","","","","","null","../audio/F2_02.WAV","l","F2_02","F2","female","2","1.902969","2.627","And so my mother also","","","","","","","","","","","","","",""
"","","","","","html-keyboard-response","90","293760","0.0-90.0","","","","","","","","","","","","1301","
            <center>
                <div id=""clip1"" class=""visual"">Clip 1<p>Press ""S""</p></div>
                <div id=""clip2"" class=""visual"">Clip 2<p>Press ""L""</p></div>
            </center>
            <p style=""text-align:center"">Which clip sounds more like someone who was born in Boston?</p>","l","","","","","","","","4","F2_01","F2_02","F2","F2","female","female","and then upstairs in her apartment,","And so my mother also","short","2","0","",""
"","","","","","audio-keyboard-response","91","297598","0.0-91.0","","","","","","","","","","","","null","../audio/F4_01.WAV","null","F4_01","F4","female","1","1.835479","2.724","Probably right before I turned six.","","","","","","","","","","","","","",""
"","","","","","audio-keyboard-response","92","298765","0.0-92.0","","","","","","","","","","","","null","../audio/F3_02.WAV","l","F3_02","F3","female","2","1.165760","2.574","as homeless people.","","","","","","","","","","","","","",""
"","","","","","html-keyboard-response","93","300767","0.0-93.0","","","","","","","","","","","","1174","
            <center>
                <div id=""clip1"" class=""visual"">Clip 1<p>Press ""S""</p></div>
                <div id=""clip2"" class=""visual"">Clip 2<p>Press ""L""</p></div>
            </center>
            <p style=""text-align:center"">Which clip sounds more like someone who was born in Boston?</p>","l","","","","","","","","5","F4_01","F3_02","F4","F3","female","female","Probably right before I turned six.","as homeless people.","short","2","0","",""
"","","","","","audio-keyboard-response","94","304521","0.0-94.0","","","","","","","","","","","","null","../audio/F5_02.WAV","null","F5_02","F5","female","1","1.750198","2.286","My father also, you know,","","","","","","","","","","","","","",""
"","","","","","audio-keyboard-response","95","305744","0.0-95.0","","","","","","","","","","","","null","../audio/M1_01.WAV","s","M1_01","M1","male","2","1.220375","4.095","being in the medical field,","","","","","","","","","","","","","",""
"","","","","","html-keyboard-response","96","307748","0.0-96.0","","","","","","","","","","","","1436","
            <center>
                <div id=""clip1"" class=""visual"">Clip 1<p>Press ""S""</p></div>
                <div id=""clip2"" class=""visual"">Clip 2<p>Press ""L""</p></div>
            </center>
            <p style=""text-align:center"">Which clip sounds more like someone who was born in Boston?</p>","s","","","","","","","","6","F5_02","M1_01","F5","M1","female","male","My father also, you know,","being in the medical field,","short","2","0","",""
"","","","","","audio-keyboard-response","97","312481","0.0-97.0","","","","","","","","","","","","null","../audio/F1_01.WAV","null","F1_01","F1","female","1","2.729260","1.832","because of the limited space.","","","","","","","","","","","","","",""
"","","","","","audio-keyboard-response","98","315148","0.0-98.0","","","","","","","","","","","","null","../audio/M2_02.WAV","l","M2_02","M2","male","2","2.665333","3.001","But later on, when I traveled quite a bit,","","","","","","","","","","","","","",""
"","","","","","html-keyboard-response","99","317150","0.0-99.0","","","","","","","","","","","","540","
            <center>
                <div id=""clip1"" class=""visual"">Clip 1<p>Press ""S""</p></div>
                <div id=""clip2"" class=""visual"">Clip 2<p>Press ""L""</p></div>
            </center>
            <p style=""text-align:center"">Which clip sounds more like someone who was born in Boston?</p>","l","","","","","","","","7","F1_01","M2_02","F1","M2","female","male","because of the limited space.","But later on, when I traveled quite a bit,","short","2","0","",""
"","","","","","audio-keyboard-response","100","321440","0.0-100.0","","","","","","","","","","","","null","../audio/F1_02.WAV","null","F1_02","F1","female","1","2.286385","2.187","clothes or fashion for that matter.","","","","","","","","","","","","","",""
"","","","","","audio-keyboard-response","101","323307","0.0-101.0","","","","","","","","","","","","null","../audio/M5_01.WAV","null","M5_01","M5","male","2","1.863625","3.755","half an hour, probably fourty five minutes away.","","","","","","","","","","","","","",""
"","","","","","html-keyboard-response","102","325310","0.0-102.0","","","","","","","","","","","","null","
            <center>
                <div id=""clip1"" class=""visual"">Clip 1<p>Press ""S""</p></div>
                <div id=""clip2"" class=""visual"">Clip 2<p>Press ""L""</p></div>
            </center>
            <p style=""text-align:center"">Which clip sounds more like someone who was born in Boston?</p>","null","","","","","","","","8","F1_02","M5_01","F1","M5","female","male","clothes or fashion for that matter.","half an hour, probably fourty five minutes away.","short","2","0","",""
"","","","","","audio-keyboard-response","103","328197","0.0-103.0","","","","","","","","","","","","null","../audio/M4_01.WAV","null","M4_01","M4","male","1","0.883969","3.393","yeah last fall","","","","","","","","","","","","","",""
"","","","","","audio-keyboard-response","104","329858","0.0-104.0","","","","","","","","","","","","null","../audio/M3_01.WAV","s","M3_01","M3","male","2","1.659469","2.411","to further my education.","","","","","","","","","","","","","",""
"","","","","","html-keyboard-response","105","331861","0.0-105.0","","","","","","","","","","","","503","
            <center>
                <div id=""clip1"" class=""visual"">Clip 1<p>Press ""S""</p></div>
                <div id=""clip2"" class=""visual"">Clip 2<p>Press ""L""</p></div>
            </center>
            <p style=""text-align:center"">Which clip sounds more like someone who was born in Boston?</p>","s","","","","","","","","9","M4_01","M3_01","M4","M3","male","male","yeah last fall","to further my education.","short","2","0","",""
"","","","","","audio-keyboard-response","106","334864","0.0-106.0","","","","","","","","","","","","null","../audio/M1_02.WAV","null","M1_02","M1","male","1","0.999906","2.000","parallel ways.","","","","","","","","","","","","","",""
"","","","","","audio-keyboard-response","107","335891","0.0-107.0","","","","","","","","","","","","null","../audio/M2_01.WAV","l","M2_01","M2","male","2","1.025729","3.900","being in the squallor.","","","","","","","","","","","","","",""
"","","","","","html-keyboard-response","108","337893","0.0-108.0","","","","","","","","","","","","395","
            <center>
                <div id=""clip1"" class=""visual"">Clip 1<p>Press ""S""</p></div>
                <div id=""clip2"" class=""visual"">Clip 2<p>Press ""L""</p></div>
            </center>
            <p style=""text-align:center"">Which clip sounds more like someone who was born in Boston?</p>","l","","","","","","","","10","M1_02","M2_01","M1","M2","male","male","parallel ways.","being in the squallor.","short","2","0","",""
"","","","","","audio-keyboard-response","109","341732","0.0-109.0","","","","","","","","","","","","null","../audio/F4_01.WAV","null","F4_01","F4","female","1","1.835479","2.724","Probably right before I turned six.","","","","","","","","","","","","","",""
"","","","","","audio-keyboard-response","110","344400","0.0-110.0","","","","","","","","","","","","null","../audio/M2_02.WAV","l","M2_02","M2","male","2","2.665333","3.001","But later on, when I traveled quite a bit,","","","","","","","","","","","","","",""
"","","","","","html-keyboard-response","111","346402","0.0-111.0","","","","","","","","","","","","727","
            <center>
                <div id=""clip1"" class=""visual"">Clip 1<p>Press ""S""</p></div>
                <div id=""clip2"" class=""visual"">Clip 2<p>Press ""L""</p></div>
            </center>
            <p style=""text-align:center"">Which clip sounds more like someone who was born in Boston?</p>","l","","","","","","","","11","F4_01","M2_02","F4","M2","female","male","Probably right before I turned six.","But later on, when I traveled quite a bit,","short","2","0","",""
"","","","","","audio-keyboard-response","112","349626","0.0-112.0","","","","","","","","","","","","null","../audio/M1_01.WAV","null","M1_01","M1","male","1","1.220375","4.095","being in the medical field,","","","","","","","","","","","","","",""
"","","","","","audio-keyboard-response","113","350654","0.0-113.0","","","","","","","","","","","","null","../audio/M2_01.WAV","l","M2_01","M2","male","2","1.025729","3.900","being in the squallor.","","","","","","","","","","","","","",""
"","","","","","html-keyboard-response","114","352656","0.0-114.0","","","","","","","","","","","","488","
            <center>
                <div id=""clip1"" class=""visual"">Clip 1<p>Press ""S""</p></div>
                <div id=""clip2"" class=""visual"">Clip 2<p>Press ""L""</p></div>
            </center>
            <p style=""text-align:center"">Which clip sounds more like someone who was born in Boston?</p>","l","","","","","","","","12","M1_01","M2_01","M1","M2","male","male","being in the medical field,","being in the squallor.","short","2","0","",""
"","","","","","audio-keyboard-response","115","355823","0.0-115.0","","","","","","","","","","","","null","../audio/F3_02.WAV","null","F3_02","F3","female","1","1.165760","2.574","as homeless people.","","","","","","","","","","","","","",""
"","","","","","audio-keyboard-response","116","356709","0.0-116.0","","","","","","","","","","","","null","../audio/M4_01.WAV","s","M4_01","M4","male","2","0.883969","3.393","yeah last fall","","","","","","","","","","","","","",""
"","","","","","html-keyboard-response","117","358711","0.0-117.0","","","","","","","","","","","","338","
            <center>
                <div id=""clip1"" class=""visual"">Clip 1<p>Press ""S""</p></div>
                <div id=""clip2"" class=""visual"">Clip 2<p>Press ""L""</p></div>
            </center>
            <p style=""text-align:center"">Which clip sounds more like someone who was born in Boston?</p>","s","","","","","","","","13","F3_02","M4_01","F3","M4","female","male","as homeless people.","yeah last fall","short","2","0","",""
"","","","","","audio-keyboard-response","118","362369","0.0-118.0","","","","","","","","","","","","null","../audio/F2_01.WAV","null","F2_01","F2","female","1","1.654760","3.021","and then upstairs in her apartment,","","","","","","","","","","","","","",""
"","","","","","audio-keyboard-response","119","364657","0.0-119.0","","","","","","","","","","","","null","../audio/F1_02.WAV","s","F1_02","F1","female","2","2.286385","2.187","clothes or fashion for that matter.","","","","","","","","","","","","","",""
"","","","","","html-keyboard-response","120","366660","0.0-120.0","","","","","","","","","","","","417","
            <center>
                <div id=""clip1"" class=""visual"">Clip 1<p>Press ""S""</p></div>
                <div id=""clip2"" class=""visual"">Clip 2<p>Press ""L""</p></div>
            </center>
            <p style=""text-align:center"">Which clip sounds more like someone who was born in Boston?</p>","s","","","","","","","","14","F2_01","F1_02","F2","F1","female","female","and then upstairs in her apartment,","clothes or fashion for that matter.","short","2","0","",""
"","","","","","audio-keyboard-response","121","370891","0.0-121.0","","","","","","","","","","","","null","../audio/M5_02.WAV","null","M5_02","M5","male","1","2.229229","2.244","Because back in the seventies,","","","","","","","","","","","","","",""
"","","","","","audio-keyboard-response","122","375161","0.0-122.0","","","","","","","","","","","","null","../audio/F3_01.WAV","l","F3_01","F3","female","2","4.267563","1.875","my parents, my two sisters, and my two brothers.","","","","","","","","","","","","","",""
"","","","","","html-keyboard-response","123","377163","0.0-123.0","","","","","","","","","","","","682","
            <center>
                <div id=""clip1"" class=""visual"">Clip 1<p>Press ""S""</p></div>
                <div id=""clip2"" class=""visual"">Clip 2<p>Press ""L""</p></div>
            </center>
            <p style=""text-align:center"">Which clip sounds more like someone who was born in Boston?</p>","l","","","","","","","","15","M5_02","F3_01","M5","F3","male","female","Because back in the seventies,","my parents, my two sisters, and my two brothers.","short","2","0","",""
"","","","","","audio-keyboard-response","124","381069","0.0-124.0","","","","","","","","","","","","null","../audio/F2_02.WAV","null","F2_02","F2","female","1","1.902969","2.627","And so my mother also","","","","","","","","","","","","","",""
"","","","","","audio-keyboard-response","125","383610","0.0-125.0","","","","","","","","","","","","null","../audio/M4_02.WAV","s","M4_02","M4","male","2","2.538281","2.364","the most intimate group of friends,","","","","","","","","","","","","","",""
"","","","","","html-keyboard-response","126","385612","0.0-126.0","","","","","","","","","","","","364","
            <center>
                <div id=""clip1"" class=""visual"">Clip 1<p>Press ""S""</p></div>
                <div id=""clip2"" class=""visual"">Clip 2<p>Press ""L""</p></div>
            </center>
            <p style=""text-align:center"">Which clip sounds more like someone who was born in Boston?</p>","s","","","","","","","","16","F2_02","M4_02","F2","M4","female","male","And so my mother also","the most intimate group of friends,","short","2","0","",""
"","","","","","audio-keyboard-response","127","388450","0.0-127.0","","","","","","","","","","","","null","../audio/F5_01.WAV","null","F5_01","F5","female","1","0.835490","3.592","Oh my god.","","","","","","","","","","","","","",""
"","","","","","audio-keyboard-response","128","391368","0.0-128.0","","","","","","","","","","","","null","../audio/F4_02.WAV","s","F4_02","F4","female","2","2.916635","2.058","Yeah, a little bit, like elementary school.","","","","","","","","","","","","","",""
"","","","","","html-keyboard-response","129","393370","0.0-129.0","","","","","","","","","","","","378","
            <center>
                <div id=""clip1"" class=""visual"">Clip 1<p>Press ""S""</p></div>
                <div id=""clip2"" class=""visual"">Clip 2<p>Press ""L""</p></div>
            </center>
            <p style=""text-align:center"">Which clip sounds more like someone who was born in Boston?</p>","s","","","","","","","","17","F5_01","F4_02","F5","F4","female","female","Oh my god.","Yeah, a little bit, like elementary school.","short","2","0","",""
"","","","","","audio-keyboard-response","130","397083","0.0-130.0","","","","","","","","","","","","null","../audio/M3_02.WAV","null","M3_02","M3","male","1","1.709750","2.924","And then on Sunday morning","","","","","","","","","","","","","",""
"","","","","","audio-keyboard-response","131","398948","0.0-131.0","","","","","","","","","","","","null","../audio/M5_01.WAV","l","M5_01","M5","male","2","1.863625","3.755","half an hour, probably fourty five minutes away.","","","","","","","","","","","","","",""
"","","","","","html-keyboard-response","132","400950","0.0-132.0","","","","","","","","","","","","383","
            <center>
                <div id=""clip1"" class=""visual"">Clip 1<p>Press ""S""</p></div>
                <div id=""clip2"" class=""visual"">Clip 2<p>Press ""L""</p></div>
            </center>
            <p style=""text-align:center"">Which clip sounds more like someone who was born in Boston?</p>","l","","","","","","","","18","M3_02","M5_01","M3","M5","male","male","And then on Sunday morning","half an hour, probably fourty five minutes away.","short","2","0","",""
"","","","","","audio-keyboard-response","133","405684","0.0-133.0","","","","","","","","","","","","null","../audio/F1_01.WAV","null","F1_01","F1","female","1","2.729260","1.832","because of the limited space.","","","","","","","","","","","","","",""
"","","","","","audio-keyboard-response","134","407346","0.0-134.0","","","","","","","","","","","","null","../audio/M3_01.WAV","l","M3_01","M3","male","2","1.659469","2.411","to further my education.","","","","","","","","","","","","","",""
"","","","","","html-keyboard-response","135","409348","0.0-135.0","","","","","","","","","","","","636","
            <center>
                <div id=""clip1"" class=""visual"">Clip 1<p>Press ""S""</p></div>
                <div id=""clip2"" class=""visual"">Clip 2<p>Press ""L""</p></div>
            </center>
            <p style=""text-align:center"">Which clip sounds more like someone who was born in Boston?</p>","l","","","","","","","","19","F1_01","M3_01","F1","M3","female","male","because of the limited space.","to further my education.","short","2","0","",""
"","","","","","audio-keyboard-response","136","413102","0.0-136.0","","","","","","","","","","","","null","../audio/F5_02.WAV","null","F5_02","F5","female","1","1.750198","2.286","My father also, you know,","","","","","","","","","","","","","",""
"","","","","","audio-keyboard-response","137","414103","0.0-137.0","","","","","","","","","","","","null","../audio/M1_02.WAV","s","M1_02","M1","male","2","0.999906","2.000","parallel ways.","","","","","","","","","","","","","",""
"","","","","","html-keyboard-response","138","416105","0.0-138.0","","","","","","","","","","","","517","
            <center>
                <div id=""clip1"" class=""visual"">Clip 1<p>Press ""S""</p></div>
                <div id=""clip2"" class=""visual"">Clip 2<p>Press ""L""</p></div>
            </center>
            <p style=""text-align:center"">Which clip sounds more like someone who was born in Boston?</p>","s","","","","","","","","20","F5_02","M1_02","F5","M1","female","male","My father also, you know,","parallel ways.","short","2","0","",""
"","","","","","audio-keyboard-response","139","420773","0.0-139.0","","","","","","","","","","","","null","../audio/M2_02.WAV","null","M2_02","M2","male","1","2.665333","3.001","But later on, when I traveled quite a bit,","","","","","","","","","","","","","",""
"","","","","","audio-keyboard-response","140","421996","0.0-140.0","","","","","","","","","","","","null","../audio/M1_01.WAV","s","M1_01","M1","male","2","1.220375","4.095","being in the medical field,","","","","","","","","","","","","","",""
"","","","","","html-keyboard-response","141","423998","0.0-141.0","","","","","","","","","","","","308","
            <center>
                <div id=""clip1"" class=""visual"">Clip 1<p>Press ""S""</p></div>
                <div id=""clip2"" class=""visual"">Clip 2<p>Press ""L""</p></div>
            </center>
            <p style=""text-align:center"">Which clip sounds more like someone who was born in Boston?</p>","s","","","","","","","","1","M2_02","M1_01","M2","M1","male","male","But later on, when I traveled quite a bit,","being in the medical field,","short","3","0","",""
"","","","","","audio-keyboard-response","142","427000","0.0-142.0","","","","","","","","","","","","null","../audio/M1_02.WAV","null","M1_02","M1","male","1","0.999906","2.000","parallel ways.","","","","","","","","","","","","","",""
"","","","","","audio-keyboard-response","143","428838","0.0-143.0","","","","","","","","","","","","null","../audio/F4_01.WAV","l","F4_01","F4","female","2","1.835479","2.724","Probably right before I turned six.","","","","","","","","","","","","","",""
"","","","","","html-keyboard-response","144","430840","0.0-144.0","","","","","","","","","","","","430","
            <center>
                <div id=""clip1"" class=""visual"">Clip 1<p>Press ""S""</p></div>
                <div id=""clip2"" class=""visual"">Clip 2<p>Press ""L""</p></div>
            </center>
            <p style=""text-align:center"">Which clip sounds more like someone who was born in Boston?</p>","l","","","","","","","","2","M1_02","F4_01","M1","F4","male","female","parallel ways.","Probably right before I turned six.","short","3","0","",""
"","","","","","audio-keyboard-response","145","435382","0.0-145.0","","","","","","","","","","","","null","../audio/M4_02.WAV","null","M4_02","M4","male","1","2.538281","2.364","the most intimate group of friends,","","","","","","","","","","","","","",""
"","","","","","audio-keyboard-response","146","437248","0.0-146.0","","","","","","","","","","","","null","../audio/M5_01.WAV","l","M5_01","M5","male","2","1.863625","3.755","half an hour, probably fourty five minutes away.","","","","","","","","","","","","","",""
"","","","","","html-keyboard-response","147","439250","0.0-147.0","","","","","","","","","","","","306","
            <center>
                <div id=""clip1"" class=""visual"">Clip 1<p>Press ""S""</p></div>
                <div id=""clip2"" class=""visual"">Clip 2<p>Press ""L""</p></div>
            </center>
            <p style=""text-align:center"">Which clip sounds more like someone who was born in Boston?</p>","l","","","","","","","","3","M4_02","M5_01","M4","M5","male","male","the most intimate group of friends,","half an hour, probably fourty five minutes away.","short","3","0","",""
"","","","","","audio-keyboard-response","148","442279","0.0-148.0","","","","","","","","","","","","null","../audio/M2_01.WAV","null","M2_01","M2","male","1","1.025729","3.900","being in the squallor.","","","","","","","","","","","","","",""
"","","","","","audio-keyboard-response","149","444510","0.0-149.0","","","","","","","","","","","","null","../audio/M5_02.WAV","l","M5_02","M5","male","2","2.229229","2.244","Because back in the seventies,","","","","","","","","","","","","","",""
"","","","","","html-keyboard-response","150","446514","0.0-150.0","","","","","","","","","","","","452","
            <center>
                <div id=""clip1"" class=""visual"">Clip 1<p>Press ""S""</p></div>
                <div id=""clip2"" class=""visual"">Clip 2<p>Press ""L""</p></div>
            </center>
            <p style=""text-align:center"">Which clip sounds more like someone who was born in Boston?</p>","l","","","","","","","","4","M2_01","M5_02","M2","M5","male","male","being in the squallor.","Because back in the seventies,","short","3","0","",""
"","","","","","audio-keyboard-response","151","452785","0.0-151.0","","","","","","","","","","","","null","../audio/F3_01.WAV","null","F3_01","F3","female","1","4.267563","1.875","my parents, my two sisters, and my two brothers.","","","","","","","","","","","","","",""
"","","","","","audio-keyboard-response","152","455073","0.0-152.0","","","","","","","","","","","","null","../audio/F1_02.WAV","l","F1_02","F1","female","2","2.286385","2.187","clothes or fashion for that matter.","","","","","","","","","","","","","",""
"","","","","","html-keyboard-response","153","457076","0.0-153.0","","","","","","","","","","","","635","
            <center>
                <div id=""clip1"" class=""visual"">Clip 1<p>Press ""S""</p></div>
                <div id=""clip2"" class=""visual"">Clip 2<p>Press ""L""</p></div>
            </center>
            <p style=""text-align:center"">Which clip sounds more like someone who was born in Boston?</p>","l","","","","","","","","5","F3_01","F1_02","F3","F1","female","female","my parents, my two sisters, and my two brothers.","clothes or fashion for that matter.","short","3","0","",""
"","","","","","audio-keyboard-response","154","460830","0.0-154.0","","","","","","","","","","","","null","../audio/F5_02.WAV","null","F5_02","F5","female","1","1.750198","2.286","My father also, you know,","","","","","","","","","","","","","",""
"","","","","","audio-keyboard-response","155","461716","0.0-155.0","","","","","","","","","","","","null","../audio/M4_01.WAV","s","M4_01","M4","male","2","0.883969","3.393","yeah last fall","","","","","","","","","","","","","",""
"","","","","","html-keyboard-response","156","463719","0.0-156.0","","","","","","","","","","","","410","
            <center>
                <div id=""clip1"" class=""visual"">Clip 1<p>Press ""S""</p></div>
                <div id=""clip2"" class=""visual"">Clip 2<p>Press ""L""</p></div>
            </center>
            <p style=""text-align:center"">Which clip sounds more like someone who was born in Boston?</p>","s","","","","","","","","6","F5_02","M4_01","F5","M4","female","male","My father also, you know,","yeah last fall","short","3","0","",""
"","","","","","audio-keyboard-response","157","467625","0.0-157.0","","","","","","","","","","","","null","../audio/F2_02.WAV","null","F2_02","F2","female","1","1.902969","2.627","And so my mother also","","","","","","","","","","","","","",""
"","","","","","audio-keyboard-response","158","470356","0.0-158.0","","","","","","","","","","","","null","../audio/F1_01.WAV","s","F1_01","F1","female","2","2.729260","1.832","because of the limited space.","","","","","","","","","","","","","",""
"","","","","","html-keyboard-response","159","472358","0.0-159.0","","","","","","","","","","","","1197","
            <center>
                <div id=""clip1"" class=""visual"">Clip 1<p>Press ""S""</p></div>
                <div id=""clip2"" class=""visual"">Clip 2<p>Press ""L""</p></div>
            </center>
            <p style=""text-align:center"">Which clip sounds more like someone who was born in Boston?</p>","s","","","","","","","","7","F2_02","F1_01","F2","F1","female","female","And so my mother also","because of the limited space.","short","3","0","",""
"","","","","","audio-keyboard-response","160","475196","0.0-160.0","","","","","","","","","","","","null","../audio/F5_01.WAV","null","F5_01","F5","female","1","0.835490","3.592","Oh my god.","","","","","","","","","","","","","",""
"","","","","","audio-keyboard-response","161","476857","0.0-161.0","","","","","","","","","","","","null","../audio/M3_01.WAV","s","M3_01","M3","male","2","1.659469","2.411","to further my education.","","","","","","","","","","","","","",""
"","","","","","html-keyboard-response","162","478859","0.0-162.0","","","","","","","","","","","","1232","
            <center>
                <div id=""clip1"" class=""visual"">Clip 1<p>Press ""S""</p></div>
                <div id=""clip2"" class=""visual"">Clip 2<p>Press ""L""</p></div>
            </center>
            <p style=""text-align:center"">Which clip sounds more like someone who was born in Boston?</p>","s","","","","","","","","8","F5_01","M3_01","F5","M3","female","male","Oh my god.","to further my education.","short","3","0","",""
"","","","","","audio-keyboard-response","163","482517","0.0-163.0","","","","","","","","","","","","null","../audio/F2_01.WAV","null","F2_01","F2","female","1","1.654760","3.021","and then upstairs in her apartment,","","","","","","","","","","","","","",""
"","","","","","audio-keyboard-response","164","483684","0.0-164.0","","","","","","","","","","","","null","../audio/F3_02.WAV","s","F3_02","F3","female","2","1.165760","2.574","as homeless people.","","","","","","","","","","","","","",""
"","","","","","html-keyboard-response","165","485687","0.0-165.0","","","","","","","","","","","","638","
            <center>
                <div id=""clip1"" class=""visual"">Clip 1<p>Press ""S""</p></div>
                <div id=""clip2"" class=""visual"">Clip 2<p>Press ""L""</p></div>
            </center>
            <p style=""text-align:center"">Which clip sounds more like someone who was born in Boston?</p>","s","","","","","","","","9","F2_01","F3_02","F2","F3","female","female","and then upstairs in her apartment,","as homeless people.","short","3","0","",""
"","","","","","audio-keyboard-response","166","489400","0.0-166.0","","","","","","","","","","","","null","../audio/M3_02.WAV","null","M3_02","M3","male","1","1.709750","2.924","And then on Sunday morning","","","","","","","","","","","","","",""
"","","","","","audio-keyboard-response","167","492317","0.0-167.0","","","","","","","","","","","","null","../audio/F4_02.WAV","s","F4_02","F4","female","2","2.916635","2.058","Yeah, a little bit, like elementary school.","","","","","","","","","","","","","",""
"","","","","","html-keyboard-response","168","494320","0.0-168.0","","","","","","","","","","","","350","
            <center>
                <div id=""clip1"" class=""visual"">Clip 1<p>Press ""S""</p></div>
                <div id=""clip2"" class=""visual"">Clip 2<p>Press ""L""</p></div>
            </center>
            <p style=""text-align:center"">Which clip sounds more like someone who was born in Boston?</p>","s","","","","","","","","10","M3_02","F4_02","M3","F4","male","female","And then on Sunday morning","Yeah, a little bit, like elementary school.","short","3","0","",""
"","","","","","audio-keyboard-response","169","498186","0.0-169.0","","","","","","","","","","","","null","../audio/M5_01.WAV","null","M5_01","M5","male","1","1.863625","3.755","half an hour, probably fourty five minutes away.","","","","","","","","","","","","","",""
"","","","","","audio-keyboard-response","170","502455","0.0-170.0","","","","","","","","","","","","null","../audio/F3_01.WAV","s","F3_01","F3","female","2","4.267563","1.875","my parents, my two sisters, and my two brothers.","","","","","","","","","","","","","",""
"","","","","","html-keyboard-response","171","504458","0.0-171.0","","","","","","","","","","","","370","
            <center>
                <div id=""clip1"" class=""visual"">Clip 1<p>Press ""S""</p></div>
                <div id=""clip2"" class=""visual"">Clip 2<p>Press ""L""</p></div>
            </center>
            <p style=""text-align:center"">Which clip sounds more like someone who was born in Boston?</p>","s","","","","","","","","11","M5_01","F3_01","M5","F3","male","female","half an hour, probably fourty five minutes away.","my parents, my two sisters, and my two brothers.","short","3","0","",""
"","","","","","audio-keyboard-response","172","509377","0.0-172.0","","","","","","","","","","","","null","../audio/F4_02.WAV","null","F4_02","F4","female","1","2.916635","2.058","Yeah, a little bit, like elementary school.","","","","","","","","","","","","","",""
"","","","","","audio-keyboard-response","173","512108","0.0-173.0","","","","","","","","","","","","null","../audio/F1_01.WAV","l","F1_01","F1","female","2","2.729260","1.832","because of the limited space.","","","","","","","","","","","","","",""
"","","","","","html-keyboard-response","174","514110","0.0-174.0","","","","","","","","","","","","1666","
            <center>
                <div id=""clip1"" class=""visual"">Clip 1<p>Press ""S""</p></div>
                <div id=""clip2"" class=""visual"">Clip 2<p>Press ""L""</p></div>
            </center>
            <p style=""text-align:center"">Which clip sounds more like someone who was born in Boston?</p>","l","","","","","","","","12","F4_02","F1_01","F4","F1","female","female","Yeah, a little bit, like elementary school.","because of the limited space.","short","3","0","",""
"","","","","","audio-keyboard-response","175","518017","0.0-175.0","","","","","","","","","","","","null","../audio/F2_02.WAV","null","F2_02","F2","female","1","1.902969","2.627","And so my mother also","","","","","","","","","","","","","",""
"","","","","","audio-keyboard-response","176","519770","0.0-176.0","","","","","","","","","","","","null","../audio/F5_02.WAV","l","F5_02","F5","female","2","1.750198","2.286","My father also, you know,","","","","","","","","","","","","","",""
"","","","","","html-keyboard-response","177","521772","0.0-177.0","","","","","","","","","","","","416","
            <center>
                <div id=""clip1"" class=""visual"">Clip 1<p>Press ""S""</p></div>
                <div id=""clip2"" class=""visual"">Clip 2<p>Press ""L""</p></div>
            </center>
            <p style=""text-align:center"">Which clip sounds more like someone who was born in Boston?</p>","l","","","","","","","","13","F2_02","F5_02","F2","F5","female","female","And so my mother also","My father also, you know,","short","3","0","",""
"","","","","","audio-keyboard-response","178","525485","0.0-178.0","","","","","","","","","","","","null","../audio/M3_02.WAV","null","M3_02","M3","male","1","1.709750","2.924","And then on Sunday morning","","","","","","","","","","","","","",""
"","","","","","audio-keyboard-response","179","527323","0.0-179.0","","","","","","","","","","","","null","../audio/F4_01.WAV","l","F4_01","F4","female","2","1.835479","2.724","Probably right before I turned six.","","","","","","","","","","","","","",""
"","","","","","html-keyboard-response","180","529326","0.0-180.0","","","","","","","","","","","","461","
            <center>
                <div id=""clip1"" class=""visual"">Clip 1<p>Press ""S""</p></div>
                <div id=""clip2"" class=""visual"">Clip 2<p>Press ""L""</p></div>
            </center>
            <p style=""text-align:center"">Which clip sounds more like someone who was born in Boston?</p>","l","","","","","","","","14","M3_02","F4_01","M3","F4","male","female","And then on Sunday morning","Probably right before I turned six.","short","3","0","",""
"","","","","","audio-keyboard-response","181","532495","0.0-181.0","","","","","","","","","","","","null","../audio/F3_02.WAV","null","F3_02","F3","female","1","1.165760","2.574","as homeless people.","","","","","","","","","","","","","",""
"","","","","","audio-keyboard-response","182","534726","0.0-182.0","","","","","","","","","","","","null","../audio/M5_02.WAV","l","M5_02","M5","male","2","2.229229","2.244","Because back in the seventies,","","","","","","","","","","","","","",""
"","","","","","html-keyboard-response","183","536728","0.0-183.0","","","","","","","","","","","","826","
            <center>
                <div id=""clip1"" class=""visual"">Clip 1<p>Press ""S""</p></div>
                <div id=""clip2"" class=""visual"">Clip 2<p>Press ""L""</p></div>
            </center>
            <p style=""text-align:center"">Which clip sounds more like someone who was born in Boston?</p>","l","","","","","","","","15","F3_02","M5_02","F3","M5","female","male","as homeless people.","Because back in the seventies,","short","3","0","",""
"","","","","","audio-keyboard-response","184","539615","0.0-184.0","","","","","","","","","","","","null","../audio/M4_01.WAV","null","M4_01","M4","male","1","0.883969","3.393","yeah last fall","","","","","","","","","","","","","",""
"","","","","","audio-keyboard-response","185","540643","0.0-185.0","","","","","","","","","","","","null","../audio/M2_01.WAV","l","M2_01","M2","male","2","1.025729","3.900","being in the squallor.","","","","","","","","","","","","","",""
"","","","","","html-keyboard-response","186","542645","0.0-186.0","","","","","","","","","","","","538","
            <center>
                <div id=""clip1"" class=""visual"">Clip 1<p>Press ""S""</p></div>
                <div id=""clip2"" class=""visual"">Clip 2<p>Press ""L""</p></div>
            </center>
            <p style=""text-align:center"">Which clip sounds more like someone who was born in Boston?</p>","l","","","","","","","","16","M4_01","M2_01","M4","M2","male","male","yeah last fall","being in the squallor.","short","3","0","",""
"","","","","","audio-keyboard-response","187","547315","0.0-187.0","","","","","","","","","","","","null","../audio/M2_02.WAV","null","M2_02","M2","male","1","2.665333","3.001","But later on, when I traveled quite a bit,","","","","","","","","","","","","","",""
"","","","","","audio-keyboard-response","188","548976","0.0-188.0","","","","","","","","","","","","null","../audio/M3_01.WAV","s","M3_01","M3","male","2","1.659469","2.411","to further my education.","","","","","","","","","","","","","",""
"","","","","","html-keyboard-response","189","550978","0.0-189.0","","","","","","","","","","","","410","
            <center>
                <div id=""clip1"" class=""visual"">Clip 1<p>Press ""S""</p></div>
                <div id=""clip2"" class=""visual"">Clip 2<p>Press ""L""</p></div>
            </center>
            <p style=""text-align:center"">Which clip sounds more like someone who was born in Boston?</p>","s","","","","","","","","17","M2_02","M3_01","M2","M3","male","male","But later on, when I traveled quite a bit,","to further my education.","short","3","0","",""
"","","","","","audio-keyboard-response","190","555520","0.0-190.0","","","","","","","","","","","","null","../audio/M4_02.WAV","null","M4_02","M4","male","1","2.538281","2.364","the most intimate group of friends,","","","","","","","","","","","","","",""
"","","","","","audio-keyboard-response","191","557177","0.0-191.0","","","","","","","","","","","","null","../audio/F2_01.WAV","l","F2_01","F2","female","2","1.654760","3.021","and then upstairs in her apartment,","","","","","","","","","","","","","",""
"","","","","","html-keyboard-response","192","559179","0.0-192.0","","","","","","","","","","","","478","
            <center>
                <div id=""clip1"" class=""visual"">Clip 1<p>Press ""S""</p></div>
                <div id=""clip2"" class=""visual"">Clip 2<p>Press ""L""</p></div>
            </center>
            <p style=""text-align:center"">Which clip sounds more like someone who was born in Boston?</p>","l","","","","","","","","18","M4_02","F2_01","M4","F2","male","female","the most intimate group of friends,","and then upstairs in her apartment,","short","3","0","",""
"","","","","","audio-keyboard-response","193","562181","0.0-193.0","","","","","","","","","","","","null","../audio/M1_02.WAV","null","M1_02","M1","male","1","0.999906","2.000","parallel ways.","","","","","","","","","","","","","",""
"","","","","","audio-keyboard-response","194","564468","0.0-194.0","","","","","","","","","","","","null","../audio/F1_02.WAV","l","F1_02","F1","female","2","2.286385","2.187","clothes or fashion for that matter.","","","","","","","","","","","","","",""
"","","","","","html-keyboard-response","195","566471","0.0-195.0","","","","","","","","","","","","748","
            <center>
                <div id=""clip1"" class=""visual"">Clip 1<p>Press ""S""</p></div>
                <div id=""clip2"" class=""visual"">Clip 2<p>Press ""L""</p></div>
            </center>
            <p style=""text-align:center"">Which clip sounds more like someone who was born in Boston?</p>","l","","","","","","","","19","M1_02","F1_02","M1","F1","male","female","parallel ways.","clothes or fashion for that matter.","short","3","0","",""
"","","","","","audio-keyboard-response","196","569695","0.0-196.0","","","","","","","","","","","","null","../audio/M1_01.WAV","null","M1_01","M1","male","1","1.220375","4.095","being in the medical field,","","","","","","","","","","","","","",""
"","","","","","audio-keyboard-response","197","570532","0.0-197.0","","","","","","","","","","","","null","../audio/F5_01.WAV","l","F5_01","F5","female","2","0.835490","3.592","Oh my god.","","","","","","","","","","","","","",""
"","","","","","html-keyboard-response","198","572534","0.0-198.0","","","","","","","","","","","","478","
            <center>
                <div id=""clip1"" class=""visual"">Clip 1<p>Press ""S""</p></div>
                <div id=""clip2"" class=""visual"">Clip 2<p>Press ""L""</p></div>
            </center>
            <p style=""text-align:center"">Which clip sounds more like someone who was born in Boston?</p>","l","","","","","","","","20","M1_01","F5_01","M1","F5","male","female","being in the medical field,","Oh my god.","short","3","0","",""
"","","","","","audio-keyboard-response","199","577441","0.0-199.0","","","","","","","","","","","","null","../audio/F2_04.WAV","null","F2_04","F2","female","1","2.902938","4.134","They buy a whole pig and then they eat their way through it.","","","","","","","","","","","","","",""
"","","","","","audio-keyboard-response","200","581558","0.0-200.0","","","","","","","","","","","","null","../audio/F3_04.WAV","l","F3_04","F3","female","2","4.115500","2.430","they would also know just because it's easier to identify families.","","","","","","","","","","","","","",""
"","","","","","html-keyboard-response","201","583560","0.0-201.0","","","","","","","","","","","","413","
            <center>
                <div id=""clip1"" class=""visual"">Clip 1<p>Press ""S""</p></div>
                <div id=""clip2"" class=""visual"">Clip 2<p>Press ""L""</p></div>
            </center>
            <p style=""text-align:center"">Which clip sounds more like someone who was born in Boston?</p>","l","","","","","","","","1","F2_04","F3_04","F2","F3","female","female","They buy a whole pig and then they eat their way through it.","they would also know just because it's easier to identify families.","long","4","0","",""
"","","","","","audio-keyboard-response","202","589552","0.0-202.0","","","","","","","","","","","","null","../audio/F4_04.WAV","null","F4_04","F4","female","1","3.988719","3.509","So when I got in, I knew that I can take the train, it was easy to commute.","","","","","","","","","","","","","",""
"","","","","","audio-keyboard-response","203","591062","0.0-203.0","","","","","","","","","","","","null","../audio/M1_04.WAV","s","M1_04","M1","male","2","1.508312","4.640","It's a really nice place to live.","","","","","","","","","","","","","",""
"","","","","","html-keyboard-response","204","593065","0.0-204.0","","","","","","","","","","","","439","
            <center>
                <div id=""clip1"" class=""visual"">Clip 1<p>Press ""S""</p></div>
                <div id=""clip2"" class=""visual"">Clip 2<p>Press ""L""</p></div>
            </center>
            <p style=""text-align:center"">Which clip sounds more like someone who was born in Boston?</p>","s","","","","","","","","2","F4_04","M1_04","F4","M1","female","male","So when I got in, I knew that I can take the train, it was easy to commute.","It's a really nice place to live.","long","4","0","",""
"","","","","","audio-keyboard-response","205","598472","0.0-205.0","","","","","","","","","","","","null","../audio/F5_04.WAV","null","F5_04","F5","female","1","3.404396","2.056","After half a year, I start full-time.","","","","","","","","","","","","","",""
"","","","","","audio-keyboard-response","206","600930","0.0-206.0","","","","","","","","","","","","null","../audio/F1_03.WAV","l","F1_03","F1","female","2","2.456333","2.442","I end up going to high school.","","","","","","","","","","","","","",""
"","","","","","html-keyboard-response","207","602933","0.0-207.0","","","","","","","","","","","","538","
            <center>
                <div id=""clip1"" class=""visual"">Clip 1<p>Press ""S""</p></div>
                <div id=""clip2"" class=""visual"">Clip 2<p>Press ""L""</p></div>
            </center>
            <p style=""text-align:center"">Which clip sounds more like someone who was born in Boston?</p>","l","","","","","","","","3","F5_04","F1_03","F5","F1","female","female","After half a year, I start full-time.","I end up going to high school.","long","4","0","",""
"","","","","","audio-keyboard-response","208","608098","0.0-208.0","","","","","","","","","","","","null","../audio/F5_03.WAV","null","F5_03","F5","female","1","3.162094","2.530","It was a totally new experience to me.","","","","","","","","","","","","","",""
"","","","","","audio-keyboard-response","209","609580","0.0-209.0","","","","","","","","","","","","null","../audio/M1_03.WAV","l","M1_03","M1","male","2","1.480896","2.701","you kind of get spoiled.","","","","","","","","","","","","","",""
"","","","","","html-keyboard-response","210","611583","0.0-210.0","","","","","","","","","","","","749","
            <center>
                <div id=""clip1"" class=""visual"">Clip 1<p>Press ""S""</p></div>
                <div id=""clip2"" class=""visual"">Clip 2<p>Press ""L""</p></div>
            </center>
            <p style=""text-align:center"">Which clip sounds more like someone who was born in Boston?</p>","l","","","","","","","","4","F5_03","M1_03","F5","M1","female","male","It was a totally new experience to me.","you kind of get spoiled.","long","4","0","",""
"","","","","","audio-keyboard-response","211","616965","0.0-211.0","","","","","","","","","","","","null","../audio/M3_03.WAV","null","M3_03","M3","male","1","3.378094","3.553","Probably you heard on the radio or on the news, they are downsizing.","","","","","","","","","","","","","",""
"","","","","","audio-keyboard-response","212","619927","0.0-212.0","","","","","","","","","","","","null","../audio/F3_03.WAV","l","F3_03","F3","female","2","2.959219","2.028","So initially my father said no.","","","","","","","","","","","","","",""
"","","","","","html-keyboard-response","213","621930","0.0-213.0","","","","","","","","","","","","445","
            <center>
                <div id=""clip1"" class=""visual"">Clip 1<p>Press ""S""</p></div>
                <div id=""clip2"" class=""visual"">Clip 2<p>Press ""L""</p></div>
            </center>
            <p style=""text-align:center"">Which clip sounds more like someone who was born in Boston?</p>","l","","","","","","","","5","M3_03","F3_03","M3","F3","male","female","Probably you heard on the radio or on the news, they are downsizing.","So initially my father said no.","long","4","0","",""
"","","","","","audio-keyboard-response","214","627108","0.0-214.0","","","","","","","","","","","","null","../audio/F1_04.WAV","null","F1_04","F1","female","1","3.175875","3.149","but majority of the time people offer to pick me up.","","","","","","","","","","","","","",""
"","","","","","audio-keyboard-response","215","630780","0.0-215.0","","","","","","","","","","","","null","../audio/F4_03.WAV","l","F4_03","F4","female","2","3.670938","2.724","Yeah, it was an apartment building. It was like a one-bedroom","","","","","","","","","","","","","",""
"","","","","","html-keyboard-response","216","632782","0.0-216.0","","","","","","","","","","","","300","
            <center>
                <div id=""clip1"" class=""visual"">Clip 1<p>Press ""S""</p></div>
                <div id=""clip2"" class=""visual"">Clip 2<p>Press ""L""</p></div>
            </center>
            <p style=""text-align:center"">Which clip sounds more like someone who was born in Boston?</p>","l","","","","","","","","6","F1_04","F4_03","F1","F4","female","female","but majority of the time people offer to pick me up.","Yeah, it was an apartment building. It was like a one-bedroom","long","4","0","",""
"","","","","","audio-keyboard-response","217","639160","0.0-217.0","","","","","","","","","","","","null","../audio/M5_03.WAV","null","M5_03","M5","male","1","4.375990","1.829","So we start transporting, moving kids outside of the neighborhood.","","","","","","","","","","","","","",""
"","","","","","audio-keyboard-response","218","640948","0.0-218.0","","","","","","","","","","","","null","../audio/M4_04.WAV","s","M4_04","M4","male","2","1.785187","3.361","I'm still struggling to be honest.","","","","","","","","","","","","","",""
"","","","","","html-keyboard-response","219","642949","0.0-219.0","","","","","","","","","","","","366","
            <center>
                <div id=""clip1"" class=""visual"">Clip 1<p>Press ""S""</p></div>
                <div id=""clip2"" class=""visual"">Clip 2<p>Press ""L""</p></div>
            </center>
            <p style=""text-align:center"">Which clip sounds more like someone who was born in Boston?</p>","s","","","","","","","","7","M5_03","M4_04","M5","M4","male","male","So we start transporting, moving kids outside of the neighborhood.","I'm still struggling to be honest.","long","4","0","",""
"","","","","","audio-keyboard-response","220","647090","0.0-220.0","","","","","","","","","","","","null","../audio/M4_03.WAV","null","M4_03","M4","male","1","2.137188","1.872","they didn't really respond","","","","","","","","","","","","","",""
"","","","","","audio-keyboard-response","221","649273","0.0-221.0","","","","","","","","","","","","null","../audio/M2_04.WAV","s","M2_04","M2","male","2","2.180729","2.751","People just focus on making money.","","","","","","","","","","","","","",""
"","","","","","html-keyboard-response","222","651274","0.0-222.0","","","","","","","","","","","","999","
            <center>
                <div id=""clip1"" class=""visual"">Clip 1<p>Press ""S""</p></div>
                <div id=""clip2"" class=""visual"">Clip 2<p>Press ""L""</p></div>
            </center>
            <p style=""text-align:center"">Which clip sounds more like someone who was born in Boston?</p>","s","","","","","","","","8","M4_03","M2_04","M4","M2","male","male","they didn't really respond","People just focus on making money.","long","4","0","",""
"","","","","","audio-keyboard-response","223","656303","0.0-223.0","","","","","","","","","","","","null","../audio/M2_03.WAV","null","M2_03","M2","male","1","3.026990","2.643","The airport is basically a one-story building.","","","","","","","","","","","","","",""
"","","","","","audio-keyboard-response","224","657866","0.0-224.0","","","","","","","","","","","","null","../audio/M5_04.WAV","l","M5_04","M5","male","2","1.560854","3.204","and the summer was cold.","","","","","","","","","","","","","",""
"","","","","","html-keyboard-response","225","659869","0.0-225.0","","","","","","","","","","","","351","
            <center>
                <div id=""clip1"" class=""visual"">Clip 1<p>Press ""S""</p></div>
                <div id=""clip2"" class=""visual"">Clip 2<p>Press ""L""</p></div>
            </center>
            <p style=""text-align:center"">Which clip sounds more like someone who was born in Boston?</p>","l","","","","","","","","9","M2_03","M5_04","M2","M5","male","male","The airport is basically a one-story building.","and the summer was cold.","long","4","0","",""
"","","","","","audio-keyboard-response","226","664436","0.0-226.0","","","","","","","","","","","","null","../audio/M3_04.WAV","null","M3_04","M3","male","1","2.564635","3.508","You had to learn about what they're talking about.","","","","","","","","","","","","","",""
"","","","","","audio-keyboard-response","227","666516","0.0-227.0","","","","","","","","","","","","null","../audio/F2_03.WAV","s","F2_03","F2","female","2","2.078781","4.811","But it was illegal at that time, and I didn't know that.","","","","","","","","","","","","","",""
"","","","","","html-keyboard-response","228","668519","0.0-228.0","","","","","","","","","","","","289","
            <center>
                <div id=""clip1"" class=""visual"">Clip 1<p>Press ""S""</p></div>
                <div id=""clip2"" class=""visual"">Clip 2<p>Press ""L""</p></div>
            </center>
            <p style=""text-align:center"">Which clip sounds more like someone who was born in Boston?</p>","s","","","","","","","","10","M3_04","F2_03","M3","F2","male","female","You had to learn about what they're talking about.","But it was illegal at that time, and I didn't know that.","long","4","0","",""
"","","","","","audio-keyboard-response","229","674637","0.0-229.0","","","","","","","","","","","","null","../audio/F3_04.WAV","null","F3_04","F3","female","1","4.115500","2.430","they would also know just because it's easier to identify families.","","","","","","","","","","","","","",""
"","","","","","audio-keyboard-response","230","677814","0.0-230.0","","","","","","","","","","","","null","../audio/F1_04.WAV","l","F1_04","F1","female","2","3.175875","3.149","but majority of the time people offer to pick me up.","","","","","","","","","","","","","",""
"","","","","","html-keyboard-response","231","679817","0.0-231.0","","","","","","","","","","","","533","
            <center>
                <div id=""clip1"" class=""visual"">Clip 1<p>Press ""S""</p></div>
                <div id=""clip2"" class=""visual"">Clip 2<p>Press ""L""</p></div>
            </center>
            <p style=""text-align:center"">Which clip sounds more like someone who was born in Boston?</p>","l","","","","","","","","11","F3_04","F1_04","F3","F1","female","female","they would also know just because it's easier to identify families.","but majority of the time people offer to pick me up.","long","4","0","",""
"","","","","","audio-keyboard-response","232","685490","0.0-232.0","","","","","","","","","","","","null","../audio/F4_03.WAV","null","F4_03","F4","female","1","3.670938","2.724","Yeah, it was an apartment building. It was like a one-bedroom","","","","","","","","","","","","","",""
"","","","","","audio-keyboard-response","233","686972","0.0-233.0","","","","","","","","","","","","null","../audio/M1_03.WAV","s","M1_03","M1","male","2","1.480896","2.701","you kind of get spoiled.","","","","","","","","","","","","","",""
"","","","","","html-keyboard-response","234","688976","0.0-234.0","","","","","","","","","","","","318","
            <center>
                <div id=""clip1"" class=""visual"">Clip 1<p>Press ""S""</p></div>
                <div id=""clip2"" class=""visual"">Clip 2<p>Press ""L""</p></div>
            </center>
            <p style=""text-align:center"">Which clip sounds more like someone who was born in Boston?</p>","s","","","","","","","","12","F4_03","M1_03","F4","M1","female","male","Yeah, it was an apartment building. It was like a one-bedroom","you kind of get spoiled.","long","4","0","",""
"","","","","","audio-keyboard-response","235","694383","0.0-235.0","","","","","","","","","","","","null","../audio/F5_04.WAV","null","F5_04","F5","female","1","3.404396","2.056","After half a year, I start full-time.","","","","","","","","","","","","","",""
"","","","","","audio-keyboard-response","236","697411","0.0-236.0","","","","","","","","","","","","null","../audio/M2_03.WAV","l","M2_03","M2","male","2","3.026990","2.643","The airport is basically a one-story building.","","","","","","","","","","","","","",""
"","","","","","html-keyboard-response","237","699413","0.0-237.0","","","","","","","","","","","","365","
            <center>
                <div id=""clip1"" class=""visual"">Clip 1<p>Press ""S""</p></div>
                <div id=""clip2"" class=""visual"">Clip 2<p>Press ""L""</p></div>
            </center>
            <p style=""text-align:center"">Which clip sounds more like someone who was born in Boston?</p>","l","","","","","","","","13","F5_04","M2_03","F5","M2","female","male","After half a year, I start full-time.","The airport is basically a one-story building.","long","4","0","",""
"","","","","","audio-keyboard-response","238","705405","0.0-238.0","","","","","","","","","","","","null","../audio/F4_04.WAV","null","F4_04","F4","female","1","3.988719","3.509","So when I got in, I knew that I can take the train, it was easy to commute.","","","","","","","","","","","","","",""
"","","","","","audio-keyboard-response","239","708786","0.0-239.0","","","","","","","","","","","","null","../audio/M3_03.WAV","s","M3_03","M3","male","2","3.378094","3.553","Probably you heard on the radio or on the news, they are downsizing.","","","","","","","","","","","","","",""
"","","","","","html-keyboard-response","240","710788","0.0-240.0","","","","","","","","","","","","274","
            <center>
                <div id=""clip1"" class=""visual"">Clip 1<p>Press ""S""</p></div>
                <div id=""clip2"" class=""visual"">Clip 2<p>Press ""L""</p></div>
            </center>
            <p style=""text-align:center"">Which clip sounds more like someone who was born in Boston?</p>","s","","","","","","","","14","F4_04","M3_03","F4","M3","female","male","So when I got in, I knew that I can take the train, it was easy to commute.","Probably you heard on the radio or on the news, they are downsizing.","long","4","0","",""
"","","","","","audio-keyboard-response","241","714352","0.0-241.0","","","","","","","","","","","","null","../audio/M5_04.WAV","null","M5_04","M5","male","1","1.560854","3.204","and the summer was cold.","","","","","","","","","","","","","",""
"","","","","","audio-keyboard-response","242","718730","0.0-242.0","","","","","","","","","","","","null","../audio/M5_03.WAV","l","M5_03","M5","male","2","4.375990","1.829","So we start transporting, moving kids outside of the neighborhood.","","","","","","","","","","","","","",""
"","","","","","html-keyboard-response","243","720732","0.0-243.0","","","","","","","","","","","","289","
            <center>
                <div id=""clip1"" class=""visual"">Clip 1<p>Press ""S""</p></div>
                <div id=""clip2"" class=""visual"">Clip 2<p>Press ""L""</p></div>
            </center>
            <p style=""text-align:center"">Which clip sounds more like someone who was born in Boston?</p>","l","","","","","","","","15","M5_04","M5_03","M5","M5","male","male","and the summer was cold.","So we start transporting, moving kids outside of the neighborhood.","long","4","0","",""
"","","","","","audio-keyboard-response","244","724873","0.0-244.0","","","","","","","","","","","","null","../audio/M4_03.WAV","null","M4_03","M4","male","1","2.137188","1.872","they didn't really respond","","","","","","","","","","","","","",""
"","","","","","audio-keyboard-response","245","727331","0.0-245.0","","","","","","","","","","","","null","../audio/F1_03.WAV","l","F1_03","F1","female","2","2.456333","2.442","I end up going to high school.","","","","","","","","","","","","","",""
"","","","","","html-keyboard-response","246","729334","0.0-246.0","","","","","","","","","","","","385","
            <center>
                <div id=""clip1"" class=""visual"">Clip 1<p>Press ""S""</p></div>
                <div id=""clip2"" class=""visual"">Clip 2<p>Press ""L""</p></div>
            </center>
            <p style=""text-align:center"">Which clip sounds more like someone who was born in Boston?</p>","l","","","","","","","","16","M4_03","F1_03","M4","F1","male","female","they didn't really respond","I end up going to high school.","long","4","0","",""
"","","","","","audio-keyboard-response","247","733902","0.0-247.0","","","","","","","","","","","","null","../audio/M3_04.WAV","null","M3_04","M3","male","1","2.564635","3.508","You had to learn about what they're talking about.","","","","","","","","","","","","","",""
"","","","","","audio-keyboard-response","248","736084","0.0-248.0","","","","","","","","","","","","null","../audio/M2_04.WAV","l","M2_04","M2","male","2","2.180729","2.751","People just focus on making money.","","","","","","","","","","","","","",""
"","","","","","html-keyboard-response","249","738087","0.0-249.0","","","","","","","","","","","","1053","
            <center>
                <div id=""clip1"" class=""visual"">Clip 1<p>Press ""S""</p></div>
                <div id=""clip2"" class=""visual"">Clip 2<p>Press ""L""</p></div>
            </center>
            <p style=""text-align:center"">Which clip sounds more like someone who was born in Boston?</p>","l","","","","","","","","17","M3_04","M2_04","M3","M2","male","male","You had to learn about what they're talking about.","People just focus on making money.","long","4","0","",""
"","","","","","audio-keyboard-response","250","741877","0.0-250.0","","","","","","","","","","","","null","../audio/M4_04.WAV","null","M4_04","M4","male","1","1.785187","3.361","I'm still struggling to be honest.","","","","","","","","","","","","","",""
"","","","","","audio-keyboard-response","251","743957","0.0-251.0","","","","","","","","","","","","null","../audio/F2_03.WAV","l","F2_03","F2","female","2","2.078781","4.811","But it was illegal at that time, and I didn't know that.","","","","","","","","","","","","","",""
"","","","","","html-keyboard-response","252","745960","0.0-252.0","","","","","","","","","","","","359","
            <center>
                <div id=""clip1"" class=""visual"">Clip 1<p>Press ""S""</p></div>
                <div id=""clip2"" class=""visual"">Clip 2<p>Press ""L""</p></div>
            </center>
            <p style=""text-align:center"">Which clip sounds more like someone who was born in Boston?</p>","l","","","","","","","","18","M4_04","F2_03","M4","F2","male","female","I'm still struggling to be honest.","But it was illegal at that time, and I didn't know that.","long","4","0","",""
"","","","","","audio-keyboard-response","253","750866","0.0-253.0","","","","","","","","","","","","null","../audio/F2_04.WAV","null","F2_04","F2","female","1","2.902938","4.134","They buy a whole pig and then they eat their way through it.","","","","","","","","","","","","","",""
