"success","timeout","failed_images","failed_audio","failed_video","trial_type","trial_index","time_elapsed","internal_node_id","width","height","webaudio","browser","browser_version","mobile","os","fullscreen","vsync_rate","webcam","microphone","rt","stimulus","response","ID","talker","gender","order","duration","speech_rate","transcript","Order","clip1_id","clip2_id","clip1_speaker","clip2_speaker","clip1_gender","clip2_gender","clip1_transcript","clip2_transcript","block_type","block_number","counterbalance_id","accuracy","question_order"
"true","false","[]","[]","[]","preload","0","750","0.0-0.0","","","","","","","","","","","","","","","","","","","","","","","","","","","","","","","","","","",""
"true","false","[]","[]","[]","preload","1","1498","0.0-1.0","","","","","","","","","","","","","","","","","","","","","","","","","","","","","","","","","","",""
"","","","","","browser-check","2","2757","0.0-2.0","1280","551","true","chrome","136.0.0","false","Windows 10","true","60.77","true","true","","","","","","","","","","","","","","","","","","","","","","","",""
"","","","","","html-button-response","3","81045","0.0-3.0","","","","","","","","","","","","78033","
        <div class=""text"" id=""instruction"" >
            <img src=""../images/stanford_logo.png"" alt=""stanford logo"" width=""180"" height=""80"">
            <p><b>Only complete this study if you are a Massachussets resident who is 18 years old or older.</b></p>
            <p>Please share this link with other people you know who live in the area, but <u>do not participate in this study more than once</u>.
            <BR>You will not be compensated more than once.</p> 
            <p>In this experiment, you will be listening to pairs of audio clips.</p>
            <p>Each pair of audio clips will be played once in consecutive order. Your task is to decide which one of the clips sounds like the speaker was born in Boston.</p>
            <p>Please ensure that you use earphones or headphones for the duration of this experiment.</p>
            <p>This experiment should be completed on a <b><u>desktop or laptop</u></b> using the <b><u>Google Chrome browser</u></b>.</p>
            <p>The experiment will take approximately 20 minutes. You will be compensated as advertised on Prolific for your time.</p>
        </div>
      ","0","","","","","","","","","","","","","","","","","","","","",""
"","","","","","html-button-response","4","121600","0.0-4.0","","","","","","","","","","","","40293","<p><strong>Thank you for your participation in this study. Please read the protocol below.</strong></p>
        <p>Protocol Director: Robert Hawkins</P
        <p>Protocol Title: Communication and social cognition in natural audiovisual contexts IRB# 77226</p>
        <p>DESCRIPTION: You are invited to participate in a research study about language and communication. 
        The purpose of the research is to understand how you interact and communicate with other people in naturalistic settings as a fluent English speaker. 
        This research will be conducted through the Prolific platform, including participants from the US, UK, and Canada. 
        If you decide to participate in this research, you will play a communication game in a group with one or more partners.</p>
        <p>TIME INVOLVEMENT: The task will last the amount of time advertised on Prolific. You are free to withdraw from the study at any time.</p>
        <p>RISKS AND BENEFITS: You may become frustrated if your partner gets distracted, or experience discomfort if other participants in your group 
        send text that is inappropriate for the task. We ask you to please be respectful of other participants you might be
        interacting with to mitigate these risks. You may also experience discomfort when being asked to discuss or challenge emotionally salient political beliefs. Study data will be
        stored securely, in compliance with Stanford University standards, minimizing the risk of confidentiality breach. This study advances our scientific understanding of how people
        communication and collaborate in naturalistic settings. This study may lead to further
        insights about what can go wrong in teamwork, suggest potential interventions to
        overcome these barriers, and help to develop assistive technologies that collaborate with
        human partners. We cannot and do not guarantee or promise that you will receive any benefits from this study.</p>
        <p>PAYMENTS: You will receive payment in the amount advertised on Prolific. If you do not complete this study, you will receive prorated payment based on the time that you have
        spent. Additionally, you may be eligible for bonus payments as described in the instructions.</p>
        <p> PARTICIPANTS RIGHTS: If you have read this form and have decided to participate in this project, please understand your participation is voluntary and you have the right
        to withdraw your consent or discontinue participation at any time without penalty or loss of benefits to which you are otherwise entitled. The alternative
        is not to participate. You have the right to refuse to answer particular questions. The results of this research study may be presented at scientific or professional meetings or
        published in scientific journals. Your individual privacy will be maintained in all published and written data resulting from the study. In accordance with scientific norms, the data
        from this study may be used or shared with other researchers for future research (after removing personally identifying information) without additional consent from you.</p>
        <p>CONTACT INFORMATION: Questions: If you have any questions, concerns or complaints about this research, its procedures, risks and benefits, contact the Protocol Director, Robert Hawkins (rdhawkins@stanford.edu, 217-549-6923).</p>
        <p>Independent Contact: If you are not satisfied with how this study is being conducted, or if you have any concerns, complaints, or general questions about the research or your rights as a participant, please contact the Stanford Institutional Review Board (IRB) to
        speak to someone independent of the research team at 650-723-2480 or toll free at 1-866-680-2906, or email at irbnonmed@stanford.edu. You can also write to the Stanford IRB, Stanford University, 1705 El Camino Real, Palo Alto, CA 94306. Please save or print a
        copy of this page for your records.</p>
        <p>If you agree to participate in this research, press the <strong>CONTINUE</strong> button to begin.</p> 
      ","0","","","","","","","","","","","","","","","","","","","","",""
"","","","","","cloze","5","139161","0.0-5.0","","","","","","","","","","","","","","[""friends""]","","","","","","","","","","","","","","","","","","","","",""
"","","","","","html-button-response","6","150190","0.0-6.0","","","","","","","","","","","","10769","
    <center>
      <div class=""instruction-box"">
        <p>You will now begin the practice trials.</p>
        <p>In each trial, two audio clips will play one after another. You will hear a variety of sentences and phrases spoken by different talkers.</p>
        <p>Each audio clip will only be played once and you will not be able to replay them.</p>
        <p><strong>Your task is to decide which clip sounds more like the speaker was born in Boston.</strong></p>
        <p><strong>These clips come from a range of different people so they might not all sound like your typical Bostonian, but just make your best guess as quickly as possible.</strong></p>        
  </center>
        ","0","","","","","","","","","","","","","","","","","","","","",""
"","","","","","html-button-response","7","162157","0.0-7.0","","","","","","","","","","","","11704","
    <center>   
      <div class=""instruction-box"">   
        <p>Please place your left index finger on the ""S"" key and your right index finger on the ""L"" key.</p>
        <p><img src=""../procedures/keyboard.png"" width=""500"" style=""margin-top:-10px""></p>
        <p>If the <strong>first clip</strong> sounds more like someone who was born in Boston, please <strong>press S</strong>.</p>
        <p>If the <strong>second clip</strong> sounds more like someone who was born in Boston, please <strong>press L</strong>.</p>
        <p><b>Respond as quickly as possible when both clips have finished playing.</b></p>
        <p>This is a timed task. If you do not respond in time, the next question will appear automatically.</p>
        <p><b>Please answer as quickly and accurately as possible.</b></p>
    </center>
        ","0","","","","","","","","","","","","","","","","","","","","",""
"","","","","","audio-keyboard-response","8","166444","0.0-8.0","","","","","","","","","","","","null","../practice/trial1_clip1.WAV","null","practice_trial1_clip1","practice_speaker","unknown","1","4","unknown","practice_transcript","","","","","","","","","","","","","",""
"","","","","","audio-keyboard-response","9","170461","0.0-9.0","","","","","","","","","","","","null","../practice/trial1_clip2.WAV","l","practice_trial1_clip2","practice_speaker","unknown","2","4","unknown","practice_transcript","","","","","","","","","","","","","",""
"","","","","","html-keyboard-response","10","172465","0.0-10.0","","","","","","","","","","","","1700","
        <center>
            <div id=""clip1"" class=""visual"">Clip 1<p>Press ""S""</p></div>
            <div id=""clip2"" class=""visual"">Clip 2<p>Press ""L""</p></div>
        </center>
        <p style=""text-align:center"">Which clip sounds more like someone who was born in Boston?</p>","l","","","","","","","","1","practice_trial1_clip1","practice_trial1_clip2","","","","","","","","","","",""
"","","","","","audio-keyboard-response","11","177995","0.0-11.0","","","","","","","","","","","","null","../practice/trial2_clip1.WAV","null","practice_trial2_clip1","practice_speaker","unknown","1","4","unknown","practice_transcript","","","","","","","","","","","","","",""
"","","","","","audio-keyboard-response","12","182005","0.0-12.0","","","","","","","","","","","","null","../practice/trial2_clip2.WAV","s","practice_trial2_clip2","practice_speaker","unknown","2","4","unknown","practice_transcript","","","","","","","","","","","","","",""
"","","","","","html-keyboard-response","13","184019","0.0-13.0","","","","","","","","","","","","509","
        <center>
            <div id=""clip1"" class=""visual"">Clip 1<p>Press ""S""</p></div>
            <div id=""clip2"" class=""visual"">Clip 2<p>Press ""L""</p></div>
        </center>
        <p style=""text-align:center"">Which clip sounds more like someone who was born in Boston?</p>","s","","","","","","","","2","practice_trial2_clip1","practice_trial2_clip2","","","","","","","","","","",""
"","","","","","audio-keyboard-response","14","189544","0.0-14.0","","","","","","","","","","","","null","../practice/trial3_clip1.WAV","null","practice_trial3_clip1","practice_speaker","unknown","1","4","unknown","practice_transcript","","","","","","","","","","","","","",""
"","","","","","audio-keyboard-response","15","193553","0.0-15.0","","","","","","","","","","","","null","../practice/trial3_clip2.WAV","l","practice_trial3_clip2","practice_speaker","unknown","2","4","unknown","practice_transcript","","","","","","","","","","","","","",""
"","","","","","html-keyboard-response","16","195560","0.0-16.0","","","","","","","","","","","","1068","
        <center>
            <div id=""clip1"" class=""visual"">Clip 1<p>Press ""S""</p></div>
            <div id=""clip2"" class=""visual"">Clip 2<p>Press ""L""</p></div>
        </center>
        <p style=""text-align:center"">Which clip sounds more like someone who was born in Boston?</p>","l","","","","","","","","3","practice_trial3_clip1","practice_trial3_clip2","","","","","","","","","","",""
"","","","","","html-button-response","17","208542","0.0-17.0","","","","","","","","","","","","11476","
    <center>
      <div class=""instruction-box"">
        <p>You will now begin the experiment.</p>
        <p>In each trial, two audio clips will play one after another. You will hear a variety of sentences and phrases spoken by different talkers.</p>
        <p>Each audio clip will only be played once and you will not be able to replay them.</p>
        <p><strong>Your task is to decide which clip sounds more like someone who was born in Boston.</strong></p>
        <p><strong>These clips come from a range of different people so they might not all sound like your typical Bostonian, but please do your best to respond as quickly as possible.</strong></p>
    </center>
        ","0","","","","","","","","","","","","","","","","","","","","",""
"","","","","","html-button-response","18","212684","0.0-18.0","","","","","","","","","","","","3889","
    <center>
      <div class=""instruction-box"">
        <p>Please place your left index finger on the ""S"" key and your right index finger on the ""L"" key.</p>
        <p><img src=""../procedures/keyboard.png"" width=""500"" style=""margin-top:-10px""></p>
        <p>If the <strong>first clip</strong> sounds more like someone who was born in Boston, please <strong>press S</strong>.</p>
        <p>If the <strong>second clip</strong> sounds more like someone who was born in Boston, please <strong>press L</strong>.</p>
        <p><b>Respond as quickly as possible when both clips have finished playing.</b></p>
        <p>This is a timed task. If you do not respond in time, the next question will appear automatically.</p>
        <p><b>Please answer as quickly and accurately as possible.</b></p>
    </center>
        ","0","","","","","","","","","","","","","","","","","","","","",""
"","","","","","audio-keyboard-response","19","215992","0.0-19.0","","","","","","","","","","","","null","../audio/M4_04.WAV","null","M4_04","M4","male","1","2.538281","2.364","The most intimate group of friends.","","","","","","","","","","","","","",""
"","","","","","audio-keyboard-response","20","216927","0.0-20.0","","","","","","","","","","","","null","../audio/M2_03.WAV","null","M2_03","M2","male","2","0.928833","5.382","I just wanted to get up.","","","","","","","","","","","","","",""
"","","","","","html-keyboard-response","21","218932","0.0-21.0","","","","","","","","","","","","null","
            <center>
                <div id=""clip1"" class=""visual"">Clip 1<p>Press ""S""</p></div>
                <div id=""clip2"" class=""visual"">Clip 2<p>Press ""L""</p></div>
            </center>
            <p style=""text-align:center"">Which clip sounds more like someone who was born in Boston?</p>","s","","","","","","","","1","M4_04","M2_03","M4","M2","male","male","The most intimate group of friends.","I just wanted to get up.","long","1","1","",""
"","","","","","audio-keyboard-response","22","225662","0.0-22.0","","","","","","","","","","","","null","../audio/F2_04.WAV","null","F2_04","F2","female","1","4.716052","2.332","And then upstairs in her apartment, she would make rice wine.","","","","","","","","","","","","","",""
"","","","","","audio-keyboard-response","23","227148","0.0-23.0","","","","","","","","","","","","null","../audio/M3_03.WAV","s","M3_03","M3","male","2","1.483458","3.371","Not too far away from here.","","","","","","","","","","","","","",""
"","","","","","html-keyboard-response","24","229158","0.0-24.0","","","","","","","","","","","","1454","
            <center>
                <div id=""clip1"" class=""visual"">Clip 1<p>Press ""S""</p></div>
                <div id=""clip2"" class=""visual"">Clip 2<p>Press ""L""</p></div>
            </center>
            <p style=""text-align:center"">Which clip sounds more like someone who was born in Boston?</p>","s","","","","","","","","2","F2_04","M3_03","F2","M3","female","male","And then upstairs in her apartment, she would make rice wine.","Not too far away from here.","long","1","1","",""
"","","","","","audio-keyboard-response","25","232556","0.0-25.0","","","","","","","","","","","","null","../audio/F2_03.WAV","null","F2_03","F2","female","1","1.372927","5.098","And they charge lots and lots of money.","","","","","","","","","","","","","",""
"","","","","","audio-keyboard-response","26","234210","0.0-26.0","","","","","","","","","","","","null","../audio/F3_04.WAV","s","F3_04","F3","female","2","1.651802","4.843","There were a lot of children in the area.","","","","","","","","","","","","","",""
"","","","","","html-keyboard-response","27","236223","0.0-27.0","","","","","","","","","","","","622","
            <center>
                <div id=""clip1"" class=""visual"">Clip 1<p>Press ""S""</p></div>
                <div id=""clip2"" class=""visual"">Clip 2<p>Press ""L""</p></div>
            </center>
            <p style=""text-align:center"">Which clip sounds more like someone who was born in Boston?</p>","s","","","","","","","","3","F2_03","F3_04","F2","F3","female","female","And they charge lots and lots of money.","There were a lot of children in the area.","long","1","1","",""
"","","","","","audio-keyboard-response","28","241912","0.0-28.0","","","","","","","","","","","","null","../audio/F4_03.WAV","null","F4_03","F4","female","1","3.670938","3.269","Yeah, it was an apartment building. It was like a one-bedroom","","","","","","","","","","","","","",""
"","","","","","audio-keyboard-response","29","243444","0.0-29.0","","","","","","","","","","","","null","../audio/F4_04.WAV","s","F4_04","F4","female","2","1.514","3.303","It was hard for my mom.","","","","","","","","","","","","","",""
"","","","","","html-keyboard-response","30","245454","0.0-30.0","","","","","","","","","","","","1172","
            <center>
                <div id=""clip1"" class=""visual"">Clip 1<p>Press ""S""</p></div>
                <div id=""clip2"" class=""visual"">Clip 2<p>Press ""L""</p></div>
            </center>
            <p style=""text-align:center"">Which clip sounds more like someone who was born in Boston?</p>","s","","","","","","","","4","F4_03","F4_04","F4","F4","female","female","Yeah, it was an apartment building. It was like a one-bedroom","It was hard for my mom.","long","1","1","",""
"","","","","","audio-keyboard-response","31","250640","0.0-31.0","","","","","","","","","","","","null","../audio/F5_03.WAV","null","F5_03","F5","female","1","3.162094","2.530","It was a totally new experience to me.","","","","","","","","","","","","","",""
"","","","","","audio-keyboard-response","32","252779","0.0-32.0","","","","","","","","","","","","null","../audio/M4_03.WAV","s","M4_03","M4","male","2","2.137188","1.872","They didn't really respond.","","","","","","","","","","","","","",""
"","","","","","html-keyboard-response","33","254792","0.0-33.0","","","","","","","","","","","","666","
            <center>
                <div id=""clip1"" class=""visual"">Clip 1<p>Press ""S""</p></div>
                <div id=""clip2"" class=""visual"">Clip 2<p>Press ""L""</p></div>
            </center>
            <p style=""text-align:center"">Which clip sounds more like someone who was born in Boston?</p>","s","","","","","","","","5","F5_03","M4_03","F5","M4","female","male","It was a totally new experience to me.","They didn't really respond.","long","1","1","",""
"","","","","","audio-keyboard-response","34","258023","0.0-34.0","","","","","","","","","","","","null","../audio/M1_03.WAV","null","M1_03","M1","male","1","1.220375","5.087881591","Being in medical field.","","","","","","","","","","","","","",""
"","","","","","audio-keyboard-response","35","259033","0.0-35.0","","","","","","","","","","","","null","../audio/M1_04.WAV","l","M1_04","M1","male","2","0.999906","2.000188035","Parallel ways.","","","","","","","","","","","","","",""
"","","","","","html-keyboard-response","36","261036","0.0-36.0","","","","","","","","","","","","1057","
            <center>
                <div id=""clip1"" class=""visual"">Clip 1<p>Press ""S""</p></div>
                <div id=""clip2"" class=""visual"">Clip 2<p>Press ""L""</p></div>
            </center>
            <p style=""text-align:center"">Which clip sounds more like someone who was born in Boston?</p>","l","","","","","","","","6","M1_03","M1_04","M1","M1","male","male","Being in medical field.","Parallel ways.","long","1","1","",""
"","","","","","audio-keyboard-response","37","266224","0.0-37.0","","","","","","","","","","","","null","../audio/F1_04.WAV","null","F1_04","F1","female","1","3.175875","3.149","But majority of the time people offered to pick me up.","","","","","","","","","","","","","",""
"","","","","","audio-keyboard-response","38","268407","0.0-38.0","","","","","","","","","","","","null","../audio/M2_04.WAV","s","M2_04","M2","male","2","2.180729","2.751","People just focus on making money.","","","","","","","","","","","","","",""
"","","","","","html-keyboard-response","39","270412","0.0-39.0","","","","","","","","","","","","252","
            <center>
                <div id=""clip1"" class=""visual"">Clip 1<p>Press ""S""</p></div>
                <div id=""clip2"" class=""visual"">Clip 2<p>Press ""L""</p></div>
            </center>
            <p style=""text-align:center"">Which clip sounds more like someone who was born in Boston?</p>","s","","","","","","","","7","F1_04","M2_04","F1","M2","female","male","But majority of the time people offered to pick me up.","People just focus on making money.","long","1","1","",""
"","","","","","audio-keyboard-response","40","275104","0.0-40.0","","","","","","","","","","","","null","../audio/M5_04.WAV","null","M5_04","M5","male","1","2.679688","2.612","We have a very enjoyable life, nothing.","","","","","","","","","","","","","",""
"","","","","","audio-keyboard-response","41","275948","0.0-41.0","","","","","","","","","","","","null","../audio/F5_04.WAV","l","F5_04","F5","female","2","0.83549","3.592","Oh my god.","","","","","","","","","","","","","",""
"","","","","","html-keyboard-response","42","277965","0.0-42.0","","","","","","","","","","","","688","
            <center>
                <div id=""clip1"" class=""visual"">Clip 1<p>Press ""S""</p></div>
                <div id=""clip2"" class=""visual"">Clip 2<p>Press ""L""</p></div>
            </center>
            <p style=""text-align:center"">Which clip sounds more like someone who was born in Boston?</p>","l","","","","","","","","8","M5_04","F5_04","M5","F5","male","female","We have a very enjoyable life, nothing.","Oh my god.","long","1","1","",""
"","","","","","audio-keyboard-response","43","281714","0.0-43.0","","","","","","","","","","","","null","../audio/F3_03.WAV","null","F3_03","F3","female","1","1.738271","2.877","At least one family had moved.","","","","","","","","","","","","","",""
"","","","","","audio-keyboard-response","44","283755","0.0-44.0","","","","","","","","","","","","null","../audio/F1_03.WAV","s","F1_03","F1","female","2","2.034542","3.440","No, actually I was the only one.","","","","","","","","","","","","","",""
"","","","","","html-keyboard-response","45","285772","0.0-45.0","","","","","","","","","","","","218","
            <center>
                <div id=""clip1"" class=""visual"">Clip 1<p>Press ""S""</p></div>
                <div id=""clip2"" class=""visual"">Clip 2<p>Press ""L""</p></div>
            </center>
            <p style=""text-align:center"">Which clip sounds more like someone who was born in Boston?</p>","s","","","","","","","","9","F3_03","F1_03","F3","F1","female","female","At least one family had moved.","No, actually I was the only one.","long","1","1","",""
"","","","","","audio-keyboard-response","46","288897","0.0-46.0","","","","","","","","","","","","null","../audio/M5_03.WAV","null","M5_03","M5","male","1","1.118844","3.576","I said, what is this?","","","","","","","","","","","","","",""
"","","","","","audio-keyboard-response","47","291463","0.0-47.0","","","","","","","","","","","","null","../audio/M3_04.WAV","s","M3_04","M3","male","2","2.564635","3.508","They have to learn about what they're talking about.","","","","","","","","","","","","","",""
"","","","","","html-keyboard-response","48","293480","0.0-48.0","","","","","","","","","","","","395","
            <center>
                <div id=""clip1"" class=""visual"">Clip 1<p>Press ""S""</p></div>
                <div id=""clip2"" class=""visual"">Clip 2<p>Press ""L""</p></div>
            </center>
            <p style=""text-align:center"">Which clip sounds more like someone who was born in Boston?</p>","s","","","","","","","","10","M5_03","M3_04","M5","M3","male","male","I said, what is this?","They have to learn about what they're talking about.","long","1","1","",""
"","","","","","audio-keyboard-response","49","296989","0.0-49.0","","","","","","","","","","","","null","../audio/M3_03.WAV","null","M3_03","M3","male","1","1.483458","3.371","Not too far away from here.","","","","","","","","","","","","","",""
"","","","","","audio-keyboard-response","50","299671","0.0-50.0","","","","","","","","","","","","null","../audio/M5_04.WAV","s","M5_04","M5","male","2","2.679688","2.612","We have a very enjoyable life, nothing.","","","","","","","","","","","","","",""
"","","","","","html-keyboard-response","51","301685","0.0-51.0","","","","","","","","","","","","435","
            <center>
                <div id=""clip1"" class=""visual"">Clip 1<p>Press ""S""</p></div>
                <div id=""clip2"" class=""visual"">Clip 2<p>Press ""L""</p></div>
            </center>
            <p style=""text-align:center"">Which clip sounds more like someone who was born in Boston?</p>","s","","","","","","","","11","M3_03","M5_04","M3","M5","male","male","Not too far away from here.","We have a very enjoyable life, nothing.","long","1","1","",""
"","","","","","audio-keyboard-response","52","305735","0.0-52.0","","","","","","","","","","","","null","../audio/F1_03.WAV","null","F1_03","F1","female","1","2.034542","3.440","No, actually I was the only one.","","","","","","","","","","","","","",""
"","","","","","audio-keyboard-response","53","307885","0.0-53.0","","","","","","","","","","","","null","../audio/M4_03.WAV","s","M4_03","M4","male","2","2.137188","1.872","They didn't really respond.","","","","","","","","","","","","","",""
"","","","","","html-keyboard-response","54","309896","0.0-54.0","","","","","","","","","","","","340","
            <center>
                <div id=""clip1"" class=""visual"">Clip 1<p>Press ""S""</p></div>
                <div id=""clip2"" class=""visual"">Clip 2<p>Press ""L""</p></div>
            </center>
            <p style=""text-align:center"">Which clip sounds more like someone who was born in Boston?</p>","s","","","","","","","","12","F1_03","M4_03","F1","M4","female","male","No, actually I was the only one.","They didn't really respond.","long","1","1","",""
"","","","","","audio-keyboard-response","55","313657","0.0-55.0","","","","","","","","","","","","null","../audio/F3_03.WAV","null","F3_03","F3","female","1","1.738271","2.877","At least one family had moved.","","","","","","","","","","","","","",""
"","","","","","audio-keyboard-response","56","314781","0.0-56.0","","","","","","","","","","","","null","../audio/M5_03.WAV","s","M5_03","M5","male","2","1.118844","3.576","I said, what is this?","","","","","","","","","","","","","",""
"","","","","","html-keyboard-response","57","316788","0.0-57.0","","","","","","","","","","","","562","
            <center>
                <div id=""clip1"" class=""visual"">Clip 1<p>Press ""S""</p></div>
                <div id=""clip2"" class=""visual"">Clip 2<p>Press ""L""</p></div>
            </center>
            <p style=""text-align:center"">Which clip sounds more like someone who was born in Boston?</p>","s","","","","","","","","13","F3_03","M5_03","F3","M5","female","male","At least one family had moved.","I said, what is this?","long","1","1","",""
"","","","","","audio-keyboard-response","58","320986","0.0-58.0","","","","","","","","","","","","null","../audio/M2_04.WAV","null","M2_04","M2","male","1","2.180729","2.751","People just focus on making money.","","","","","","","","","","","","","",""
"","","","","","audio-keyboard-response","59","323553","0.0-59.0","","","","","","","","","","","","null","../audio/M3_04.WAV","l","M3_04","M3","male","2","2.564635","3.508","They have to learn about what they're talking about.","","","","","","","","","","","","","",""
"","","","","","html-keyboard-response","60","325562","0.0-60.0","","","","","","","","","","","","1841","
            <center>
                <div id=""clip1"" class=""visual"">Clip 1<p>Press ""S""</p></div>
                <div id=""clip2"" class=""visual"">Clip 2<p>Press ""L""</p></div>
            </center>
            <p style=""text-align:center"">Which clip sounds more like someone who was born in Boston?</p>","l","","","","","","","","14","M2_04","M3_04","M2","M3","male","male","People just focus on making money.","They have to learn about what they're talking about.","long","1","1","",""
"","","","","","audio-keyboard-response","61","328571","0.0-61.0","","","","","","","","","","","","null","../audio/M1_04.WAV","null","M1_04","M1","male","1","0.999906","2.000188035","Parallel ways.","","","","","","","","","","","","","",""
"","","","","","audio-keyboard-response","62","333292","0.0-62.0","","","","","","","","","","","","null","../audio/F2_04.WAV","l","F2_04","F2","female","2","4.716052","2.332","And then upstairs in her apartment, she would make rice wine.","","","","","","","","","","","","","",""
"","","","","","html-keyboard-response","63","335299","0.0-63.0","","","","","","","","","","","","319","
            <center>
                <div id=""clip1"" class=""visual"">Clip 1<p>Press ""S""</p></div>
                <div id=""clip2"" class=""visual"">Clip 2<p>Press ""L""</p></div>
            </center>
            <p style=""text-align:center"">Which clip sounds more like someone who was born in Boston?</p>","l","","","","","","","","15","M1_04","F2_04","M1","F2","male","female","Parallel ways.","And then upstairs in her apartment, she would make rice wine.","long","1","1","",""
"","","","","","audio-keyboard-response","64","338153","0.0-64.0","","","","","","","","","","","","null","../audio/F5_04.WAV","null","F5_04","F5","female","1","0.83549","3.592","Oh my god.","","","","","","","","","","","","","",""
"","","","","","audio-keyboard-response","65","341825","0.0-65.0","","","","","","","","","","","","null","../audio/F4_03.WAV","l","F4_03","F4","female","2","3.670938","3.269","Yeah, it was an apartment building. It was like a one-bedroom","","","","","","","","","","","","","",""
"","","","","","html-keyboard-response","66","343838","0.0-66.0","","","","","","","","","","","","450","
            <center>
                <div id=""clip1"" class=""visual"">Clip 1<p>Press ""S""</p></div>
                <div id=""clip2"" class=""visual"">Clip 2<p>Press ""L""</p></div>
            </center>
            <p style=""text-align:center"">Which clip sounds more like someone who was born in Boston?</p>","l","","","","","","","","16","F5_04","F4_03","F5","F4","female","female","Oh my god.","Yeah, it was an apartment building. It was like a one-bedroom","long","1","1","",""
"","","","","","audio-keyboard-response","67","348398","0.0-67.0","","","","","","","","","","","","null","../audio/M4_04.WAV","null","M4_04","M4","male","1","2.538281","2.364","The most intimate group of friends.","","","","","","","","","","","","","",""
"","","","","","audio-keyboard-response","68","349772","0.0-68.0","","","","","","","","","","","","null","../audio/F2_03.WAV","l","F2_03","F2","female","2","1.372927","5.098","And they charge lots and lots of money.","","","","","","","","","","","","","",""
"","","","","","html-keyboard-response","69","351783","0.0-69.0","","","","","","","","","","","","576","
            <center>
                <div id=""clip1"" class=""visual"">Clip 1<p>Press ""S""</p></div>
                <div id=""clip2"" class=""visual"">Clip 2<p>Press ""L""</p></div>
            </center>
            <p style=""text-align:center"">Which clip sounds more like someone who was born in Boston?</p>","l","","","","","","","","17","M4_04","F2_03","M4","F2","male","female","The most intimate group of friends.","And they charge lots and lots of money.","long","1","1","",""
"","","","","","audio-keyboard-response","70","355328","0.0-70.0","","","","","","","","","","","","null","../audio/F4_04.WAV","null","F4_04","F4","female","1","1.514","3.303","It was hard for my mom.","","","","","","","","","","","","","",""
"","","","","","audio-keyboard-response","71","358505","0.0-71.0","","","","","","","","","","","","null","../audio/F1_04.WAV","s","F1_04","F1","female","2","3.175875","3.149","But majority of the time people offered to pick me up.","","","","","","","","","","","","","",""
"","","","","","html-keyboard-response","72","360513","0.0-72.0","","","","","","","","","","","","371","
            <center>
                <div id=""clip1"" class=""visual"">Clip 1<p>Press ""S""</p></div>
                <div id=""clip2"" class=""visual"">Clip 2<p>Press ""L""</p></div>
            </center>
            <p style=""text-align:center"">Which clip sounds more like someone who was born in Boston?</p>","s","","","","","","","","18","F4_04","F1_04","F4","F1","female","female","It was hard for my mom.","But majority of the time people offered to pick me up.","long","1","1","",""
"","","","","","audio-keyboard-response","73","364171","0.0-73.0","","","","","","","","","","","","null","../audio/F3_04.WAV","null","F3_04","F3","female","1","1.651802","4.843","There were a lot of children in the area.","","","","","","","","","","","","","",""
"","","","","","audio-keyboard-response","74","367340","0.0-74.0","","","","","","","","","","","","null","../audio/F5_03.WAV","s","F5_03","F5","female","2","3.162094","2.530","It was a totally new experience to me.","","","","","","","","","","","","","",""
"","","","","","html-keyboard-response","75","369356","0.0-75.0","","","","","","","","","","","","1448","
            <center>
                <div id=""clip1"" class=""visual"">Clip 1<p>Press ""S""</p></div>
                <div id=""clip2"" class=""visual"">Clip 2<p>Press ""L""</p></div>
            </center>
            <p style=""text-align:center"">Which clip sounds more like someone who was born in Boston?</p>","s","","","","","","","","19","F3_04","F5_03","F3","F5","female","female","There were a lot of children in the area.","It was a totally new experience to me.","long","1","1","",""
"","","","","","audio-keyboard-response","76","372303","0.0-76.0","","","","","","","","","","","","null","../audio/M2_03.WAV","null","M2_03","M2","male","1","0.928833","5.382","I just wanted to get up.","","","","","","","","","","","","","",""
"","","","","","audio-keyboard-response","77","373526","0.0-77.0","","","","","","","","","","","","null","../audio/M1_03.WAV","s","M1_03","M1","male","2","1.220375","5.087881591","Being in medical field.","","","","","","","","","","","","","",""
"","","","","","html-keyboard-response","78","375532","0.0-78.0","","","","","","","","","","","","875","
            <center>
                <div id=""clip1"" class=""visual"">Clip 1<p>Press ""S""</p></div>
                <div id=""clip2"" class=""visual"">Clip 2<p>Press ""L""</p></div>
            </center>
            <p style=""text-align:center"">Which clip sounds more like someone who was born in Boston?</p>","s","","","","","","","","20","M2_03","M1_03","M2","M1","male","male","I just wanted to get up.","Being in medical field.","long","1","1","",""
"","","","","","audio-keyboard-response","79","382259","0.0-79.0","","","","","","","","","","","","null","../audio/F2_04.WAV","null","F2_04","F2","female","1","4.716052","2.332","And then upstairs in her apartment, she would make rice wine.","","","","","","","","","","","","","",""
"","","","","","audio-keyboard-response","80","383103","0.0-80.0","","","","","","","","","","","","null","../audio/F5_04.WAV","s","F5_04","F5","female","2","0.83549","3.592","Oh my god.","","","","","","","","","","","","","",""
"","","","","","html-keyboard-response","81","385113","0.0-81.0","","","","","","","","","","","","724","
            <center>
                <div id=""clip1"" class=""visual"">Clip 1<p>Press ""S""</p></div>
                <div id=""clip2"" class=""visual"">Clip 2<p>Press ""L""</p></div>
            </center>
            <p style=""text-align:center"">Which clip sounds more like someone who was born in Boston?</p>","s","","","","","","","","1","F2_04","F5_04","F2","F5","female","female","And then upstairs in her apartment, she would make rice wine.","Oh my god.","long","2","1","",""
"","","","","","audio-keyboard-response","82","389308","0.0-82.0","","","","","","","","","","","","null","../audio/M2_04.WAV","null","M2_04","M2","male","1","2.180729","2.751","People just focus on making money.","","","","","","","","","","","","","",""
"","","","","","audio-keyboard-response","83","390796","0.0-83.0","","","","","","","","","","","","null","../audio/M3_03.WAV","s","M3_03","M3","male","2","1.483458","3.371","Not too far away from here.","","","","","","","","","","","","","",""
"","","","","","html-keyboard-response","84","392811","0.0-84.0","","","","","","","","","","","","934","
            <center>
                <div id=""clip1"" class=""visual"">Clip 1<p>Press ""S""</p></div>
                <div id=""clip2"" class=""visual"">Clip 2<p>Press ""L""</p></div>
            </center>
            <p style=""text-align:center"">Which clip sounds more like someone who was born in Boston?</p>","s","","","","","","","","2","M2_04","M3_03","M2","M3","male","male","People just focus on making money.","Not too far away from here.","long","2","1","",""
"","","","","","audio-keyboard-response","85","395755","0.0-85.0","","","","","","","","","","","","null","../audio/M2_03.WAV","null","M2_03","M2","male","1","0.928833","5.382","I just wanted to get up.","","","","","","","","","","","","","",""
"","","","","","audio-keyboard-response","86","398323","0.0-86.0","","","","","","","","","","","","null","../audio/M3_04.WAV","s","M3_04","M3","male","2","2.564635","3.508","They have to learn about what they're talking about.","","","","","","","","","","","","","",""
"","","","","","html-keyboard-response","87","400336","0.0-87.0","","","","","","","","","","","","1635","
            <center>
                <div id=""clip1"" class=""visual"">Clip 1<p>Press ""S""</p></div>
                <div id=""clip2"" class=""visual"">Clip 2<p>Press ""L""</p></div>
            </center>
            <p style=""text-align:center"">Which clip sounds more like someone who was born in Boston?</p>","s","","","","","","","","3","M2_03","M3_04","M2","M3","male","male","I just wanted to get up.","They have to learn about what they're talking about.","long","2","1","",""
"","","","","","audio-keyboard-response","88","403997","0.0-88.0","","","","","","","","","","","","null","../audio/F3_04.WAV","null","F3_04","F3","female","1","1.651802","4.843","There were a lot of children in the area.","","","","","","","","","","","","","",""
"","","","","","audio-keyboard-response","89","407178","0.0-89.0","","","","","","","","","","","","null","../audio/F1_04.WAV","s","F1_04","F1","female","2","3.175875","3.149","But majority of the time people offered to pick me up.","","","","","","","","","","","","","",""
"","","","","","html-keyboard-response","90","409181","0.0-90.0","","","","","","","","","","","","1860","
            <center>
                <div id=""clip1"" class=""visual"">Clip 1<p>Press ""S""</p></div>
                <div id=""clip2"" class=""visual"">Clip 2<p>Press ""L""</p></div>
            </center>
            <p style=""text-align:center"">Which clip sounds more like someone who was born in Boston?</p>","s","","","","","","","","4","F3_04","F1_04","F3","F1","female","female","There were a lot of children in the area.","But majority of the time people offered to pick me up.","long","2","1","",""
"","","","","","audio-keyboard-response","91","412566","0.0-91.0","","","","","","","","","","","","null","../audio/F2_03.WAV","null","F2_03","F2","female","1","1.372927","5.098","And they charge lots and lots of money.","","","","","","","","","","","","","",""
"","","","","","audio-keyboard-response","92","414710","0.0-92.0","","","","","","","","","","","","null","../audio/M4_03.WAV","s","M4_03","M4","male","2","2.137188","1.872","They didn't really respond.","","","","","","","","","","","","","",""
"","","","","","html-keyboard-response","93","416712","0.0-93.0","","","","","","","","","","","","422","
            <center>
                <div id=""clip1"" class=""visual"">Clip 1<p>Press ""S""</p></div>
                <div id=""clip2"" class=""visual"">Clip 2<p>Press ""L""</p></div>
            </center>
            <p style=""text-align:center"">Which clip sounds more like someone who was born in Boston?</p>","s","","","","","","","","5","F2_03","M4_03","F2","M4","female","male","And they charge lots and lots of money.","They didn't really respond.","long","2","1","",""
"","","","","","audio-keyboard-response","94","420763","0.0-94.0","","","","","","","","","","","","null","../audio/F1_03.WAV","null","F1_03","F1","female","1","2.034542","3.440","No, actually I was the only one.","","","","","","","","","","","","","",""
"","","","","","audio-keyboard-response","95","421889","0.0-95.0","","","","","","","","","","","","null","../audio/M5_03.WAV","l","M5_03","M5","male","2","1.118844","3.576","I said, what is this?","","","","","","","","","","","","","",""
"","","","","","html-keyboard-response","96","423905","0.0-96.0","","","","","","","","","","","","395","
            <center>
                <div id=""clip1"" class=""visual"">Clip 1<p>Press ""S""</p></div>
                <div id=""clip2"" class=""visual"">Clip 2<p>Press ""L""</p></div>
            </center>
            <p style=""text-align:center"">Which clip sounds more like someone who was born in Boston?</p>","l","","","","","","","","6","F1_03","M5_03","F1","M5","female","male","No, actually I was the only one.","I said, what is this?","long","2","1","",""
"","","","","","audio-keyboard-response","97","427155","0.0-97.0","","","","","","","","","","","","null","../audio/M1_03.WAV","null","M1_03","M1","male","1","1.220375","5.087881591","Being in medical field.","","","","","","","","","","","","","",""
"","","","","","audio-keyboard-response","98","429835","0.0-98.0","","","","","","","","","","","","null","../audio/M5_04.WAV","s","M5_04","M5","male","2","2.679688","2.612","We have a very enjoyable life, nothing.","","","","","","","","","","","","","",""
"","","","","","html-keyboard-response","99","431846","0.0-99.0","","","","","","","","","","","","755","
            <center>
                <div id=""clip1"" class=""visual"">Clip 1<p>Press ""S""</p></div>
                <div id=""clip2"" class=""visual"">Clip 2<p>Press ""L""</p></div>
            </center>
            <p style=""text-align:center"">Which clip sounds more like someone who was born in Boston?</p>","s","","","","","","","","7","M1_03","M5_04","M1","M5","male","male","Being in medical field.","We have a very enjoyable life, nothing.","long","2","1","",""
"","","","","","audio-keyboard-response","100","437542","0.0-100.0","","","","","","","","","","","","null","../audio/F4_03.WAV","null","F4_03","F4","female","1","3.670938","3.269","Yeah, it was an apartment building. It was like a one-bedroom","","","","","","","","","","","","","",""
"","","","","","audio-keyboard-response","101","439286","0.0-101.0","","","","","","","","","","","","null","../audio/F3_03.WAV","s","F3_03","F3","female","2","1.738271","2.877","At least one family had moved.","","","","","","","","","","","","","",""
"","","","","","html-keyboard-response","102","441288","0.0-102.0","","","","","","","","","","","","577","
            <center>
                <div id=""clip1"" class=""visual"">Clip 1<p>Press ""S""</p></div>
                <div id=""clip2"" class=""visual"">Clip 2<p>Press ""L""</p></div>
            </center>
            <p style=""text-align:center"">Which clip sounds more like someone who was born in Boston?</p>","s","","","","","","","","8","F4_03","F3_03","F4","F3","female","female","Yeah, it was an apartment building. It was like a one-bedroom","At least one family had moved.","long","2","1","",""
"","","","","","audio-keyboard-response","103","444827","0.0-103.0","","","","","","","","","","","","null","../audio/F4_04.WAV","null","F4_04","F4","female","1","1.514","3.303","It was hard for my mom.","","","","","","","","","","","","","",""
"","","","","","audio-keyboard-response","104","447371","0.0-104.0","","","","","","","","","","","","null","../audio/M4_04.WAV","s","M4_04","M4","male","2","2.538281","2.364","The most intimate group of friends.","","","","","","","","","","","","","",""
"","","","","","html-keyboard-response","105","449374","0.0-105.0","","","","","","","","","","","","388","
            <center>
                <div id=""clip1"" class=""visual"">Clip 1<p>Press ""S""</p></div>
                <div id=""clip2"" class=""visual"">Clip 2<p>Press ""L""</p></div>
            </center>
            <p style=""text-align:center"">Which clip sounds more like someone who was born in Boston?</p>","s","","","","","","","","9","F4_04","M4_04","F4","M4","female","male","It was hard for my mom.","The most intimate group of friends.","long","2","1","",""
"","","","","","audio-keyboard-response","106","454555","0.0-106.0","","","","","","","","","","","","null","../audio/F5_03.WAV","null","F5_03","F5","female","1","3.162094","2.530","It was a totally new experience to me.","","","","","","","","","","","","","",""
"","","","","","audio-keyboard-response","107","455564","0.0-107.0","","","","","","","","","","","","null","../audio/M1_04.WAV","s","M1_04","M1","male","2","0.999906","2.000188035","Parallel ways.","","","","","","","","","","","","","",""
"","","","","","html-keyboard-response","108","457574","0.0-108.0","","","","","","","","","","","","374","
            <center>
                <div id=""clip1"" class=""visual"">Clip 1<p>Press ""S""</p></div>
                <div id=""clip2"" class=""visual"">Clip 2<p>Press ""L""</p></div>
            </center>
            <p style=""text-align:center"">Which clip sounds more like someone who was born in Boston?</p>","s","","","","","","","","10","F5_03","M1_04","F5","M1","female","male","It was a totally new experience to me.","Parallel ways.","long","2","1","",""
"","","","","","audio-keyboard-response","109","461089","0.0-109.0","","","","","","","","","","","","null","../audio/M3_03.WAV","null","M3_03","M3","male","1","1.483458","3.371","Not too far away from here.","","","","","","","","","","","","","",""
"","","","","","audio-keyboard-response","110","462209","0.0-110.0","","","","","","","","","","","","null","../audio/M5_03.WAV","l","M5_03","M5","male","2","1.118844","3.576","I said, what is this?","","","","","","","","","","","","","",""
"","","","","","html-keyboard-response","111","464215","0.0-111.0","","","","","","","","","","","","1741","
            <center>
                <div id=""clip1"" class=""visual"">Clip 1<p>Press ""S""</p></div>
                <div id=""clip2"" class=""visual"">Clip 2<p>Press ""L""</p></div>
            </center>
            <p style=""text-align:center"">Which clip sounds more like someone who was born in Boston?</p>","l","","","","","","","","11","M3_03","M5_03","M3","M5","male","male","Not too far away from here.","I said, what is this?","long","2","1","",""
"","","","","","audio-keyboard-response","112","468772","0.0-112.0","","","","","","","","","","","","null","../audio/M4_04.WAV","null","M4_04","M4","male","1","2.538281","2.364","The most intimate group of friends.","","","","","","","","","","","","","",""
"","","","","","audio-keyboard-response","113","471937","0.0-113.0","","","","","","","","","","","","null","../audio/F5_03.WAV","l","F5_03","F5","female","2","3.162094","2.530","It was a totally new experience to me.","","","","","","","","","","","","","",""
"","","","","","html-keyboard-response","114","473939","0.0-114.0","","","","","","","","","","","","963","
            <center>
                <div id=""clip1"" class=""visual"">Clip 1<p>Press ""S""</p></div>
                <div id=""clip2"" class=""visual"">Clip 2<p>Press ""L""</p></div>
            </center>
            <p style=""text-align:center"">Which clip sounds more like someone who was born in Boston?</p>","l","","","","","","","","12","M4_04","F5_03","M4","F5","male","female","The most intimate group of friends.","It was a totally new experience to me.","long","2","1","",""
"","","","","","audio-keyboard-response","115","477331","0.0-115.0","","","","","","","","","","","","null","../audio/F2_03.WAV","null","F2_03","F2","female","1","1.372927","5.098","And they charge lots and lots of money.","","","","","","","","","","","","","",""
"","","","","","audio-keyboard-response","116","480513","0.0-116.0","","","","","","","","","","","","null","../audio/F1_04.WAV","s","F1_04","F1","female","2","3.175875","3.149","But majority of the time people offered to pick me up.","","","","","","","","","","","","","",""
"","","","","","html-keyboard-response","117","482521","0.0-117.0","","","","","","","","","","","","348","
            <center>
                <div id=""clip1"" class=""visual"">Clip 1<p>Press ""S""</p></div>
                <div id=""clip2"" class=""visual"">Clip 2<p>Press ""L""</p></div>
            </center>
            <p style=""text-align:center"">Which clip sounds more like someone who was born in Boston?</p>","s","","","","","","","","13","F2_03","F1_04","F2","F1","female","female","And they charge lots and lots of money.","But majority of the time people offered to pick me up.","long","2","1","",""
"","","","","","audio-keyboard-response","118","489256","0.0-118.0","","","","","","","","","","","","null","../audio/F2_04.WAV","null","F2_04","F2","female","1","4.716052","2.332","And then upstairs in her apartment, she would make rice wine.","","","","","","","","","","","","","",""
"","","","","","audio-keyboard-response","119","491442","0.0-119.0","","","","","","","","","","","","null","../audio/M2_04.WAV","s","M2_04","M2","male","2","2.180729","2.751","People just focus on making money.","","","","","","","","","","","","","",""
"","","","","","html-keyboard-response","120","493455","0.0-120.0","","","","","","","","","","","","444","
            <center>
                <div id=""clip1"" class=""visual"">Clip 1<p>Press ""S""</p></div>
                <div id=""clip2"" class=""visual"">Clip 2<p>Press ""L""</p></div>
            </center>
            <p style=""text-align:center"">Which clip sounds more like someone who was born in Boston?</p>","s","","","","","","","","14","F2_04","M2_04","F2","M2","female","male","And then upstairs in her apartment, she would make rice wine.","People just focus on making money.","long","2","1","",""
"","","","","","audio-keyboard-response","121","496463","0.0-121.0","","","","","","","","","","","","null","../audio/M1_04.WAV","null","M1_04","M1","male","1","0.999906","2.000188035","Parallel ways.","","","","","","","","","","","","","",""
"","","","","","audio-keyboard-response","122","498506","0.0-122.0","","","","","","","","","","","","null","../audio/F1_03.WAV","l","F1_03","F1","female","2","2.034542","3.440","No, actually I was the only one.","","","","","","","","","","","","","",""
"","","","","","html-keyboard-response","123","500516","0.0-123.0","","","","","","","","","","","","1075","
            <center>
                <div id=""clip1"" class=""visual"">Clip 1<p>Press ""S""</p></div>
                <div id=""clip2"" class=""visual"">Clip 2<p>Press ""L""</p></div>
            </center>
            <p style=""text-align:center"">Which clip sounds more like someone who was born in Boston?</p>","l","","","","","","","","15","M1_04","F1_03","M1","F1","male","female","Parallel ways.","No, actually I was the only one.","long","2","1","",""
"","","","","","audio-keyboard-response","124","506196","0.0-124.0","","","","","","","","","","","","null","../audio/F4_03.WAV","null","F4_03","F4","female","1","3.670938","3.269","Yeah, it was an apartment building. It was like a one-bedroom","","","","","","","","","","","","","",""
"","","","","","audio-keyboard-response","125","508335","0.0-125.0","","","","","","","","","","","","null","../audio/M4_03.WAV","s","M4_03","M4","male","2","2.137188","1.872","They didn't really respond.","","","","","","","","","","","","","",""
"","","","","","html-keyboard-response","126","510346","0.0-126.0","","","","","","","","","","","","364","
            <center>
                <div id=""clip1"" class=""visual"">Clip 1<p>Press ""S""</p></div>
                <div id=""clip2"" class=""visual"">Clip 2<p>Press ""L""</p></div>
            </center>
            <p style=""text-align:center"">Which clip sounds more like someone who was born in Boston?</p>","s","","","","","","","","16","F4_03","M4_03","F4","M4","female","male","Yeah, it was an apartment building. It was like a one-bedroom","They didn't really respond.","long","2","1","",""
"","","","","","audio-keyboard-response","127","514921","0.0-127.0","","","","","","","","","","","","null","../audio/M3_04.WAV","null","M3_04","M3","male","1","2.564635","3.508","They have to learn about what they're talking about.","","","","","","","","","","","","","",""
"","","","","","audio-keyboard-response","128","515763","0.0-128.0","","","","","","","","","","","","null","../audio/F5_04.WAV","l","F5_04","F5","female","2","0.83549","3.592","Oh my god.","","","","","","","","","","","","","",""
"","","","","","html-keyboard-response","129","517770","0.0-129.0","","","","","","","","","","","","1144","
            <center>
                <div id=""clip1"" class=""visual"">Clip 1<p>Press ""S""</p></div>
                <div id=""clip2"" class=""visual"">Clip 2<p>Press ""L""</p></div>
            </center>
            <p style=""text-align:center"">Which clip sounds more like someone who was born in Boston?</p>","l","","","","","","","","17","M3_04","F5_04","M3","F5","male","female","They have to learn about what they're talking about.","Oh my god.","long","2","1","",""
"","","","","","audio-keyboard-response","130","520713","0.0-130.0","","","","","","","","","","","","null","../audio/M2_03.WAV","null","M2_03","M2","male","1","0.928833","5.382","I just wanted to get up.","","","","","","","","","","","","","",""
"","","","","","audio-keyboard-response","131","522237","0.0-131.0","","","","","","","","","","","","null","../audio/F4_04.WAV","l","F4_04","F4","female","2","1.514","3.303","It was hard for my mom.","","","","","","","","","","","","","",""
"","","","","","html-keyboard-response","132","524251","0.0-132.0","","","","","","","","","","","","303","
            <center>
                <div id=""clip1"" class=""visual"">Clip 1<p>Press ""S""</p></div>
                <div id=""clip2"" class=""visual"">Clip 2<p>Press ""L""</p></div>
            </center>
            <p style=""text-align:center"">Which clip sounds more like someone who was born in Boston?</p>","l","","","","","","","","18","M2_03","F4_04","M2","F4","male","female","I just wanted to get up.","It was hard for my mom.","long","2","1","",""
"","","","","","audio-keyboard-response","133","528944","0.0-133.0","","","","","","","","","","","","null","../audio/M5_04.WAV","null","M5_04","M5","male","1","2.679688","2.612","We have a very enjoyable life, nothing.","","","","","","","","","","","","","",""
"","","","","","audio-keyboard-response","134","530603","0.0-134.0","","","","","","","","","","","","null","../audio/F3_04.WAV","s","F3_04","F3","female","2","1.651802","4.843","There were a lot of children in the area.","","","","","","","","","","","","","",""
"","","","","","html-keyboard-response","135","532611","0.0-135.0","","","","","","","","","","","","886","
            <center>
                <div id=""clip1"" class=""visual"">Clip 1<p>Press ""S""</p></div>
                <div id=""clip2"" class=""visual"">Clip 2<p>Press ""L""</p></div>
            </center>
            <p style=""text-align:center"">Which clip sounds more like someone who was born in Boston?</p>","s","","","","","","","","19","M5_04","F3_04","M5","F3","male","female","We have a very enjoyable life, nothing.","There were a lot of children in the area.","long","2","1","",""
"","","","","","audio-keyboard-response","136","536363","0.0-136.0","","","","","","","","","","","","null","../audio/F3_03.WAV","null","F3_03","F3","female","1","1.738271","2.877","At least one family had moved.","","","","","","","","","","","","","",""
"","","","","","audio-keyboard-response","137","537589","0.0-137.0","","","","","","","","","","","","null","../audio/M1_03.WAV","s","M1_03","M1","male","2","1.220375","5.087881591","Being in medical field.","","","","","","","","","","","","","",""
"","","","","","html-keyboard-response","138","539595","0.0-138.0","","","","","","","","","","","","388","
            <center>
                <div id=""clip1"" class=""visual"">Clip 1<p>Press ""S""</p></div>
                <div id=""clip2"" class=""visual"">Clip 2<p>Press ""L""</p></div>
            </center>
            <p style=""text-align:center"">Which clip sounds more like someone who was born in Boston?</p>","s","","","","","","","","20","F3_03","M1_03","F3","M1","female","male","At least one family had moved.","Being in medical field.","long","2","1","",""
"","","","","","audio-keyboard-response","139","543347","0.0-139.0","","","","","","","","","","","","null","../audio/F3_03.WAV","null","F3_03","F3","female","1","1.738271","2.877","At least one family had moved.","","","","","","","","","","","","","",""
"","","","","","audio-keyboard-response","140","546035","0.0-140.0","","","","","","","","","","","","null","../audio/M5_04.WAV","s","M5_04","M5","male","2","2.679688","2.612","We have a very enjoyable life, nothing.","","","","","","","","","","","","","",""
"","","","","","html-keyboard-response","141","548038","0.0-141.0","","","","","","","","","","","","503","
            <center>
                <div id=""clip1"" class=""visual"">Clip 1<p>Press ""S""</p></div>
                <div id=""clip2"" class=""visual"">Clip 2<p>Press ""L""</p></div>
            </center>
            <p style=""text-align:center"">Which clip sounds more like someone who was born in Boston?</p>","s","","","","","","","","1","F3_03","M5_04","F3","M5","female","male","At least one family had moved.","We have a very enjoyable life, nothing.","long","3","1","",""
"","","","","","audio-keyboard-response","142","552616","0.0-142.0","","","","","","","","","","","","null","../audio/M3_04.WAV","null","M3_04","M3","male","1","2.564635","3.508","They have to learn about what they're talking about.","","","","","","","","","","","","","",""
"","","","","","audio-keyboard-response","143","556289","0.0-143.0","","","","","","","","","","","","null","../audio/F4_03.WAV","l","F4_03","F4","female","2","3.670938","3.269","Yeah, it was an apartment building. It was like a one-bedroom","","","","","","","","","","","","","",""
"","","","","","html-keyboard-response","144","558306","0.0-144.0","","","","","","","","","","","","440","
            <center>
                <div id=""clip1"" class=""visual"">Clip 1<p>Press ""S""</p></div>
                <div id=""clip2"" class=""visual"">Clip 2<p>Press ""L""</p></div>
            </center>
            <p style=""text-align:center"">Which clip sounds more like someone who was born in Boston?</p>","l","","","","","","","","2","M3_04","F4_03","M3","F4","male","female","They have to learn about what they're talking about.","Yeah, it was an apartment building. It was like a one-bedroom","long","3","1","",""
"","","","","","audio-keyboard-response","145","561696","0.0-145.0","","","","","","","","","","","","null","../audio/F2_03.WAV","null","F2_03","F2","female","1","1.372927","5.098","And they charge lots and lots of money.","","","","","","","","","","","","","",""
"","","","","","audio-keyboard-response","146","564863","0.0-146.0","","","","","","","","","","","","null","../audio/F5_03.WAV","s","F5_03","F5","female","2","3.162094","2.530","It was a totally new experience to me.","","","","","","","","","","","","","",""
"","","","","","html-keyboard-response","147","566872","0.0-147.0","","","","","","","","","","","","317","
            <center>
                <div id=""clip1"" class=""visual"">Clip 1<p>Press ""S""</p></div>
                <div id=""clip2"" class=""visual"">Clip 2<p>Press ""L""</p></div>
            </center>
            <p style=""text-align:center"">Which clip sounds more like someone who was born in Boston?</p>","s","","","","","","","","3","F2_03","F5_03","F2","F5","female","female","And they charge lots and lots of money.","It was a totally new experience to me.","long","3","1","",""
"","","","","","audio-keyboard-response","148","573621","0.0-148.0","","","","","","","","","","","","null","../audio/F2_04.WAV","null","F2_04","F2","female","1","4.716052","2.332","And then upstairs in her apartment, she would make rice wine.","","","","","","","","","","","","","",""
"","","","","","audio-keyboard-response","149","576171","0.0-149.0","","","","","","","","","","","","null","../audio/M4_04.WAV","s","M4_04","M4","male","2","2.538281","2.364","The most intimate group of friends.","","","","","","","","","","","","","",""
"","","","","","html-keyboard-response","150","578176","0.0-150.0","","","","","","","","","","","","454","
            <center>
                <div id=""clip1"" class=""visual"">Clip 1<p>Press ""S""</p></div>
                <div id=""clip2"" class=""visual"">Clip 2<p>Press ""L""</p></div>
            </center>
            <p style=""text-align:center"">Which clip sounds more like someone who was born in Boston?</p>","s","","","","","","","","4","F2_04","M4_04","F2","M4","female","male","And then upstairs in her apartment, she would make rice wine.","The most intimate group of friends.","long","3","1","",""
"","","","","","audio-keyboard-response","151","581113","0.0-151.0","","","","","","","","","","","","null","../audio/M2_03.WAV","null","M2_03","M2","male","1","0.928833","5.382","I just wanted to get up.","","","","","","","","","","","","","",""
"","","","","","audio-keyboard-response","152","582772","0.0-152.0","","","","","","","","","","","","null","../audio/F3_04.WAV","l","F3_04","F3","female","2","1.651802","4.843","There were a lot of children in the area.","","","","","","","","","","","","","",""
"","","","","","html-keyboard-response","153","584781","0.0-153.0","","","","","","","","","","","","509","
            <center>
                <div id=""clip1"" class=""visual"">Clip 1<p>Press ""S""</p></div>
                <div id=""clip2"" class=""visual"">Clip 2<p>Press ""L""</p></div>
            </center>
            <p style=""text-align:center"">Which clip sounds more like someone who was born in Boston?</p>","l","","","","","","","","5","M2_03","F3_04","M2","F3","male","female","I just wanted to get up.","There were a lot of children in the area.","long","3","1","",""
"","","","","","audio-keyboard-response","154","588972","0.0-154.0","","","","","","","","","","","","null","../audio/M2_04.WAV","null","M2_04","M2","male","1","2.180729","2.751","People just focus on making money.","","","","","","","","","","","","","",""
"","","","","","audio-keyboard-response","155","590464","0.0-155.0","","","","","","","","","","","","null","../audio/M3_03.WAV","s","M3_03","M3","male","2","1.483458","3.371","Not too far away from here.","","","","","","","","","","","","","",""
"","","","","","html-keyboard-response","156","592473","0.0-156.0","","","","","","","","","","","","750","
            <center>
                <div id=""clip1"" class=""visual"">Clip 1<p>Press ""S""</p></div>
                <div id=""clip2"" class=""visual"">Clip 2<p>Press ""L""</p></div>
            </center>
            <p style=""text-align:center"">Which clip sounds more like someone who was born in Boston?</p>","s","","","","","","","","6","M2_04","M3_03","M2","M3","male","male","People just focus on making money.","Not too far away from here.","long","3","1","",""
"","","","","","audio-keyboard-response","157","596630","0.0-157.0","","","","","","","","","","","","null","../audio/M4_03.WAV","null","M4_03","M4","male","1","2.137188","1.872","They didn't really respond.","","","","","","","","","","","","","",""
"","","","","","audio-keyboard-response","158","597750","0.0-158.0","","","","","","","","","","","","null","../audio/M5_03.WAV","l","M5_03","M5","male","2","1.118844","3.576","I said, what is this?","","","","","","","","","","","","","",""
"","","","","","html-keyboard-response","159","599755","0.0-159.0","","","","","","","","","","","","865","
            <center>
                <div id=""clip1"" class=""visual"">Clip 1<p>Press ""S""</p></div>
                <div id=""clip2"" class=""visual"">Clip 2<p>Press ""L""</p></div>
            </center>
            <p style=""text-align:center"">Which clip sounds more like someone who was born in Boston?</p>","l","","","","","","","","7","M4_03","M5_03","M4","M5","male","male","They didn't really respond.","I said, what is this?","long","3","1","",""
"","","","","","audio-keyboard-response","160","602771","0.0-160.0","","","","","","","","","","","","null","../audio/M1_04.WAV","null","M1_04","M1","male","1","0.999906","2.000188035","Parallel ways.","","","","","","","","","","","","","",""
"","","","","","audio-keyboard-response","161","605952","0.0-161.0","","","","","","","","","","","","null","../audio/F1_04.WAV","l","F1_04","F1","female","2","3.175875","3.149","But majority of the time people offered to pick me up.","","","","","","","","","","","","","",""
"","","","","","html-keyboard-response","162","607954","0.0-162.0","","","","","","","","","","","","1983","
            <center>
                <div id=""clip1"" class=""visual"">Clip 1<p>Press ""S""</p></div>
                <div id=""clip2"" class=""visual"">Clip 2<p>Press ""L""</p></div>
            </center>
            <p style=""text-align:center"">Which clip sounds more like someone who was born in Boston?</p>","l","","","","","","","","8","M1_04","F1_04","M1","F1","male","female","Parallel ways.","But majority of the time people offered to pick me up.","long","3","1","",""
"","","","","","audio-keyboard-response","163","612005","0.0-163.0","","","","","","","","","","","","null","../audio/F1_03.WAV","null","F1_03","F1","female","1","2.034542","3.440","No, actually I was the only one.","","","","","","","","","","","","","",""
"","","","","","audio-keyboard-response","164","612843","0.0-164.0","","","","","","","","","","","","null","../audio/F5_04.WAV","l","F5_04","F5","female","2","0.83549","3.592","Oh my god.","","","","","","","","","","","","","",""
"","","","","","html-keyboard-response","165","614846","0.0-165.0","","","","","","","","","","","","1525","
            <center>
                <div id=""clip1"" class=""visual"">Clip 1<p>Press ""S""</p></div>
                <div id=""clip2"" class=""visual"">Clip 2<p>Press ""L""</p></div>
            </center>
            <p style=""text-align:center"">Which clip sounds more like someone who was born in Boston?</p>","l","","","","","","","","9","F1_03","F5_04","F1","F5","female","female","No, actually I was the only one.","Oh my god.","long","3","1","",""
"","","","","","audio-keyboard-response","166","618089","0.0-166.0","","","","","","","","","","","","null","../audio/M1_03.WAV","null","M1_03","M1","male","1","1.220375","5.087881591","Being in medical field.","","","","","","","","","","","","","",""
"","","","","","audio-keyboard-response","167","619612","0.0-167.0","","","","","","","","","","","","null","../audio/F4_04.WAV","l","F4_04","F4","female","2","1.514","3.303","It was hard for my mom.","","","","","","","","","","","","","",""
"","","","","","html-keyboard-response","168","621629","0.0-168.0","","","","","","","","","","","","672","
            <center>
                <div id=""clip1"" class=""visual"">Clip 1<p>Press ""S""</p></div>
                <div id=""clip2"" class=""visual"">Clip 2<p>Press ""L""</p></div>
            </center>
            <p style=""text-align:center"">Which clip sounds more like someone who was born in Boston?</p>","l","","","","","","","","10","M1_03","F4_04","M1","F4","male","female","Being in medical field.","It was hard for my mom.","long","3","1","",""
"","","","","","audio-keyboard-response","169","625163","0.0-169.0","","","","","","","","","","","","null","../audio/F4_04.WAV","null","F4_04","F4","female","1","1.514","3.303","It was hard for my mom.","","","","","","","","","","","","","",""
"","","","","","audio-keyboard-response","170","626539","0.0-170.0","","","","","","","","","","","","null","../audio/F2_03.WAV","null","F2_03","F2","female","2","1.372927","5.098","And they charge lots and lots of money.","","","","","","","","","","","","","",""
"","","","","","html-keyboard-response","171","628551","0.0-171.0","","","","","","","","","","","","null","
            <center>
                <div id=""clip1"" class=""visual"">Clip 1<p>Press ""S""</p></div>
                <div id=""clip2"" class=""visual"">Clip 2<p>Press ""L""</p></div>
            </center>
            <p style=""text-align:center"">Which clip sounds more like someone who was born in Boston?</p>","null","","","","","","","","11","F4_04","F2_03","F4","F2","female","female","It was hard for my mom.","And they charge lots and lots of money.","long","3","1","",""
"","","","","","audio-keyboard-response","172","632613","0.0-172.0","","","","","","","","","","","","null","../audio/F1_03.WAV","null","F1_03","F1","female","1","2.034542","3.440","No, actually I was the only one.","","","","","","","","","","","","","",""
"","","","","","audio-keyboard-response","173","633622","0.0-173.0","","","","","","","","","","","","null","../audio/M1_04.WAV","s","M1_04","M1","male","2","0.999906","2.000188035","Parallel ways.","","","","","","","","","","","","","",""
"","","","","","html-keyboard-response","174","635625","0.0-174.0","","","","","","","","","","","","1520","
            <center>
                <div id=""clip1"" class=""visual"">Clip 1<p>Press ""S""</p></div>
                <div id=""clip2"" class=""visual"">Clip 2<p>Press ""L""</p></div>
            </center>
            <p style=""text-align:center"">Which clip sounds more like someone who was born in Boston?</p>","s","","","","","","","","12","F1_03","M1_04","F1","M1","female","male","No, actually I was the only one.","Parallel ways.","long","3","1","",""
"","","","","","audio-keyboard-response","175","640827","0.0-175.0","","","","","","","","","","","","null","../audio/F1_04.WAV","null","F1_04","F1","female","1","3.175875","3.149","But majority of the time people offered to pick me up.","","","","","","","","","","","","","",""
"","","","","","audio-keyboard-response","176","642049","0.0-176.0","","","","","","","","","","","","null","../audio/M1_03.WAV","s","M1_03","M1","male","2","1.220375","5.087881591","Being in medical field.","","","","","","","","","","","","","",""
"","","","","","html-keyboard-response","177","644062","0.0-177.0","","","","","","","","","","","","294","
            <center>
                <div id=""clip1"" class=""visual"">Clip 1<p>Press ""S""</p></div>
                <div id=""clip2"" class=""visual"">Clip 2<p>Press ""L""</p></div>
            </center>
            <p style=""text-align:center"">Which clip sounds more like someone who was born in Boston?</p>","s","","","","","","","","13","F1_04","M1_03","F1","M1","female","male","But majority of the time people offered to pick me up.","Being in medical field.","long","3","1","",""
"","","","","","audio-keyboard-response","178","646921","0.0-178.0","","","","","","","","","","","","null","../audio/F5_04.WAV","null","F5_04","F5","female","1","0.83549","3.592","Oh my god.","","","","","","","","","","","","","",""
"","","","","","audio-keyboard-response","179","649117","0.0-179.0","","","","","","","","","","","","null","../audio/M2_04.WAV","s","M2_04","M2","male","2","2.180729","2.751","People just focus on making money.","","","","","","","","","","","","","",""
"","","","","","html-keyboard-response","180","651124","0.0-180.0","","","","","","","","","","","","1309","
            <center>
                <div id=""clip1"" class=""visual"">Clip 1<p>Press ""S""</p></div>
                <div id=""clip2"" class=""visual"">Clip 2<p>Press ""L""</p></div>
            </center>
            <p style=""text-align:center"">Which clip sounds more like someone who was born in Boston?</p>","s","","","","","","","","14","F5_04","M2_04","F5","M2","female","male","Oh my god.","People just focus on making money.","long","3","1","",""
"","","","","","audio-keyboard-response","181","656816","0.0-181.0","","","","","","","","","","","","null","../audio/F4_03.WAV","null","F4_03","F4","female","1","3.670938","3.269","Yeah, it was an apartment building. It was like a one-bedroom","","","","","","","","","","","","","",""
"","","","","","audio-keyboard-response","182","658471","0.0-182.0","","","","","","","","","","","","null","../audio/F3_04.WAV","s","F3_04","F3","female","2","1.651802","4.843","There were a lot of children in the area.","","","","","","","","","","","","","",""
"","","","","","html-keyboard-response","183","660480","0.0-183.0","","","","","","","","","","","","258","
            <center>
                <div id=""clip1"" class=""visual"">Clip 1<p>Press ""S""</p></div>
                <div id=""clip2"" class=""visual"">Clip 2<p>Press ""L""</p></div>
            </center>
            <p style=""text-align:center"">Which clip sounds more like someone who was born in Boston?</p>","s","","","","","","","","15","F4_03","F3_04","F4","F3","female","female","Yeah, it was an apartment building. It was like a one-bedroom","There were a lot of children in the area.","long","3","1","",""
"","","","","","audio-keyboard-response","184","667217","0.0-184.0","","","","","","","","","","","","null","../audio/F2_04.WAV","null","F2_04","F2","female","1","4.716052","2.332","And then upstairs in her apartment, she would make rice wine.","","","","","","","","","","","","","",""
"","","","","","audio-keyboard-response","185","668149","0.0-185.0","","","","","","","","","","","","null","../audio/M2_03.WAV","s","M2_03","M2","male","2","0.928833","5.382","I just wanted to get up.","","","","","","","","","","","","","",""
"","","","","","html-keyboard-response","186","670155","0.0-186.0","","","","","","","","","","","","281","
            <center>
                <div id=""clip1"" class=""visual"">Clip 1<p>Press ""S""</p></div>
                <div id=""clip2"" class=""visual"">Clip 2<p>Press ""L""</p></div>
            </center>
            <p style=""text-align:center"">Which clip sounds more like someone who was born in Boston?</p>","s","","","","","","","","16","F2_04","M2_03","F2","M2","female","male","And then upstairs in her apartment, she would make rice wine.","I just wanted to get up.","long","3","1","",""
"","","","","","audio-keyboard-response","187","675328","0.0-187.0","","","","","","","","","","","","null","../audio/F5_03.WAV","null","F5_03","F5","female","1","3.162094","2.530","It was a totally new experience to me.","","","","","","","","","","","","","",""
"","","","","","audio-keyboard-response","188","677897","0.0-188.0","","","","","","","","","","","","null","../audio/M3_04.WAV","l","M3_04","M3","male","2","2.564635","3.508","They have to learn about what they're talking about.","","","","","","","","","","","","","",""
"","","","","","html-keyboard-response","189","679914","0.0-189.0","","","","","","","","","","","","496","
            <center>
                <div id=""clip1"" class=""visual"">Clip 1<p>Press ""S""</p></div>
                <div id=""clip2"" class=""visual"">Clip 2<p>Press ""L""</p></div>
            </center>
            <p style=""text-align:center"">Which clip sounds more like someone who was born in Boston?</p>","l","","","","","","","","17","F5_03","M3_04","F5","M3","female","male","It was a totally new experience to me.","They have to learn about what they're talking about.","long","3","1","",""
"","","","","","audio-keyboard-response","190","683419","0.0-190.0","","","","","","","","","","","","null","../audio/M3_03.WAV","null","M3_03","M3","male","1","1.483458","3.371","Not too far away from here.","","","","","","","","","","","","","",""
"","","","","","audio-keyboard-response","191","685163","0.0-191.0","","","","","","","","","","","","null","../audio/F3_03.WAV","l","F3_03","F3","female","2","1.738271","2.877","At least one family had moved.","","","","","","","","","","","","","",""
"","","","","","html-keyboard-response","192","687171","0.0-192.0","","","","","","","","","","","","346","
            <center>
                <div id=""clip1"" class=""visual"">Clip 1<p>Press ""S""</p></div>
                <div id=""clip2"" class=""visual"">Clip 2<p>Press ""L""</p></div>
            </center>
            <p style=""text-align:center"">Which clip sounds more like someone who was born in Boston?</p>","l","","","","","","","","18","M3_03","F3_03","M3","F3","male","female","Not too far away from here.","At least one family had moved.","long","3","1","",""
"","","","","","audio-keyboard-response","193","691737","0.0-193.0","","","","","","","","","","","","null","../audio/M4_04.WAV","null","M4_04","M4","male","1","2.538281","2.364","The most intimate group of friends.","","","","","","","","","","","","","",""
"","","","","","audio-keyboard-response","194","692863","0.0-194.0","","","","","","","","","","","","null","../audio/M5_03.WAV","l","M5_03","M5","male","2","1.118844","3.576","I said, what is this?","","","","","","","","","","","","","",""
"","","","","","html-keyboard-response","195","694871","0.0-195.0","","","","","","","","","","","","443","
            <center>
                <div id=""clip1"" class=""visual"">Clip 1<p>Press ""S""</p></div>
                <div id=""clip2"" class=""visual"">Clip 2<p>Press ""L""</p></div>
            </center>
            <p style=""text-align:center"">Which clip sounds more like someone who was born in Boston?</p>","l","","","","","","","","19","M4_04","M5_03","M4","M5","male","male","The most intimate group of friends.","I said, what is this?","long","3","1","",""
"","","","","","audio-keyboard-response","196","699030","0.0-196.0","","","","","","","","","","","","null","../audio/M4_03.WAV","null","M4_03","M4","male","1","2.137188","1.872","They didn't really respond.","","","","","","","","","","","","","",""
"","","","","","audio-keyboard-response","197","701712","0.0-197.0","","","","","","","","","","","","null","../audio/M5_04.WAV","l","M5_04","M5","male","2","2.679688","2.612","We have a very enjoyable life, nothing.","","","","","","","","","","","","","",""
"","","","","","html-keyboard-response","198","703719","0.0-198.0","","","","","","","","","","","","1304","
            <center>
                <div id=""clip1"" class=""visual"">Clip 1<p>Press ""S""</p></div>
                <div id=""clip2"" class=""visual"">Clip 2<p>Press ""L""</p></div>
            </center>
            <p style=""text-align:center"">Which clip sounds more like someone who was born in Boston?</p>","l","","","","","","","","20","M4_03","M5_04","M4","M5","male","male","They didn't really respond.","We have a very enjoyable life, nothing.","long","3","1","",""
"","","","","","audio-keyboard-response","199","710176","0.0-199.0","","","","","","","","","","","","null","../audio/F3_02.WAV","null","F3_02","F3","female","1","4.438833","2.253","So it wasn't residential on both sides of the street...","","","","","","","","","","","","","",""
"","","","","","audio-keyboard-response","200","712015","0.0-200.0","","","","","","","","","","","","null","../audio/F4_01.WAV","l","F4_01","F4","female","2","1.835479","2.724","Probably right before I turn six.","","","","","","","","","","","","","",""
"","","","","","html-keyboard-response","201","714032","0.0-201.0","","","","","","","","","","","","277","
            <center>
                <div id=""clip1"" class=""visual"">Clip 1<p>Press ""S""</p></div>
                <div id=""clip2"" class=""visual"">Clip 2<p>Press ""L""</p></div>
            </center>
            <p style=""text-align:center"">Which clip sounds more like someone who was born in Boston?</p>","l","","","","","","","","1","F3_02","F4_01","F3","F4","female","female","So it wasn't residential on both sides of the street...","Probably right before I turn six.","short","4","1","",""
"","","","","","audio-keyboard-response","202","718062","0.0-202.0","","","","","","","","","","","","null","../audio/F5_02.WAV","null","F5_02","F5","female","1","2.006958","2.491","We sort of like stay together.","","","","","","","","","","","","","",""
"","","","","","audio-keyboard-response","203","720794","0.0-203.0","","","","","","","","","","","","null","../audio/F1_01.WAV","s","F1_01","F1","female","2","2.72926","1.832","Because of the limited space.","","","","","","","","","","","","","",""
"","","","","","html-keyboard-response","204","722800","0.0-204.0","","","","","","","","","","","","392","
            <center>
                <div id=""clip1"" class=""visual"">Clip 1<p>Press ""S""</p></div>
                <div id=""clip2"" class=""visual"">Clip 2<p>Press ""L""</p></div>
            </center>
            <p style=""text-align:center"">Which clip sounds more like someone who was born in Boston?</p>","s","","","","","","","","2","F5_02","F1_01","F5","F1","female","female","We sort of like stay together.","Because of the limited space.","short","4","1","",""
"","","","","","audio-keyboard-response","205","726467","0.0-205.0","","","","","","","","","","","","null","../audio/M3_01.WAV","null","M3_01","M3","male","1","1.659469","2.411","To further my education.","","","","","","","","","","","","","",""
"","","","","","audio-keyboard-response","206","729674","0.0-206.0","","","","","","","","","","","","null","../audio/F2_01.WAV","l","F2_01","F2","female","2","3.200677","1.250","It's head-to-tail restaurant.","","","","","","","","","","","","","",""
"","","","","","html-keyboard-response","207","731680","0.0-207.0","","","","","","","","","","","","347","
            <center>
                <div id=""clip1"" class=""visual"">Clip 1<p>Press ""S""</p></div>
                <div id=""clip2"" class=""visual"">Clip 2<p>Press ""L""</p></div>
            </center>
            <p style=""text-align:center"">Which clip sounds more like someone who was born in Boston?</p>","l","","","","","","","","3","M3_01","F2_01","M3","F2","male","female","To further my education.","It's head-to-tail restaurant.","short","4","1","",""
"","","","","","audio-keyboard-response","208","736599","0.0-208.0","","","","","","","","","","","","null","../audio/F2_02.WAV","null","F2_02","F2","female","1","2.902938","4.134","They buy a whole pig and then they eat their way through it.","","","","","","","","","","","","","",""
"","","","","","audio-keyboard-response","209","738091","0.0-209.0","","","","","","","","","","","","null","../audio/M1_01.WAV","s","M1_01","M1","male","2","1.480896","5.043558001","You kind of get spoiled.","","","","","","","","","","","","","",""
"","","","","","html-keyboard-response","210","740100","0.0-210.0","","","","","","","","","","","","694","
            <center>
                <div id=""clip1"" class=""visual"">Clip 1<p>Press ""S""</p></div>
                <div id=""clip2"" class=""visual"">Clip 2<p>Press ""L""</p></div>
            </center>
            <p style=""text-align:center"">Which clip sounds more like someone who was born in Boston?</p>","s","","","","","","","","4","F2_02","M1_01","F2","M1","female","male","They buy a whole pig and then they eat their way through it.","You kind of get spoiled.","short","4","1","",""
"","","","","","audio-keyboard-response","211","745123","0.0-211.0","","","","","","","","","","","","null","../audio/M2_01.WAV","null","M2_01","M2","male","1","3.0","2.667","The airport is basically a one-story building.","","","","","","","","","","","","","",""
"","","","","","audio-keyboard-response","212","746688","0.0-212.0","","","","","","","","","","","","null","../audio/M5_02.WAV","l","M5_02","M5","male","2","1.560854","3.204","In December, it was cold.","","","","","","","","","","","","","",""
"","","","","","html-keyboard-response","213","748704","0.0-213.0","","","","","","","","","","","","1077","
            <center>
                <div id=""clip1"" class=""visual"">Clip 1<p>Press ""S""</p></div>
                <div id=""clip2"" class=""visual"">Clip 2<p>Press ""L""</p></div>
            </center>
            <p style=""text-align:center"">Which clip sounds more like someone who was born in Boston?</p>","l","","","","","","","","5","M2_01","M5_02","M2","M5","male","male","The airport is basically a one-story building.","In December, it was cold.","short","4","1","",""
"","","","","","audio-keyboard-response","214","751859","0.0-214.0","","","","","","","","","","","","null","../audio/F5_01.WAV","null","F5_01","F5","female","1","1.144573","3.495","He worked very hard.","","","","","","","","","","","","","",""
"","","","","","audio-keyboard-response","215","754331","0.0-215.0","","","","","","","","","","","","null","../audio/F1_02.WAV","l","F1_02","F1","female","2","2.456333","2.442","I end up going to high school.","","","","","","","","","","","","","",""
"","","","","","html-keyboard-response","216","756334","0.0-216.0","","","","","","","","","","","","540","
            <center>
                <div id=""clip1"" class=""visual"">Clip 1<p>Press ""S""</p></div>
                <div id=""clip2"" class=""visual"">Clip 2<p>Press ""L""</p></div>
            </center>
            <p style=""text-align:center"">Which clip sounds more like someone who was born in Boston?</p>","l","","","","","","","","6","F5_01","F1_02","F5","F1","female","female","He worked very hard.","I end up going to high school.","short","4","1","",""
"","","","","","audio-keyboard-response","217","759382","0.0-217.0","","","","","","","","","","","","null","../audio/M2_02.WAV","null","M2_02","M2","male","1","1.039885","3.846","So that was great.","","","","","","","","","","","","","",""
"","","","","","audio-keyboard-response","218","761505","0.0-218.0","","","","","","","","","","","","null","../audio/M4_01.WAV","s","M4_01","M4","male","2","2.112052","2.841","The main source is from class.","","","","","","","","","","","","","",""
"","","","","","html-keyboard-response","219","763515","0.0-219.0","","","","","","","","","","","","952","
            <center>
                <div id=""clip1"" class=""visual"">Clip 1<p>Press ""S""</p></div>
                <div id=""clip2"" class=""visual"">Clip 2<p>Press ""L""</p></div>
            </center>
            <p style=""text-align:center"">Which clip sounds more like someone who was born in Boston?</p>","s","","","","","","","","7","M2_02","M4_01","M2","M4","male","male","So that was great.","The main source is from class.","short","4","1","",""
"","","","","","audio-keyboard-response","220","767530","0.0-220.0","","","","","","","","","","","","null","../audio/M5_01.WAV","null","M5_01","M5","male","1","2.002865","2.994","All of us were very young, so...","","","","","","","","","","","","","",""
"","","","","","audio-keyboard-response","221","769248","0.0-221.0","","","","","","","","","","","","null","../audio/M3_02.WAV","s","M3_02","M3","male","2","1.70975","2.924","And then on Sunday morning","","","","","","","","","","","","","",""
"","","","","","html-keyboard-response","222","771258","0.0-222.0","","","","","","","","","","","","971","
            <center>
                <div id=""clip1"" class=""visual"">Clip 1<p>Press ""S""</p></div>
                <div id=""clip2"" class=""visual"">Clip 2<p>Press ""L""</p></div>
            </center>
            <p style=""text-align:center"">Which clip sounds more like someone who was born in Boston?</p>","s","","","","","","","","8","M5_01","M3_02","M5","M3","male","male","All of us were very young, so...","And then on Sunday morning","short","4","1","",""
"","","","","","audio-keyboard-response","223","776187","0.0-223.0","","","","","","","","","","","","null","../audio/F4_02.WAV","null","F4_02","F4","female","1","2.916635","2.058","Yeah, a little bit, like elementary school.","","","","","","","","","","","","","",""
"","","","","","audio-keyboard-response","224","780459","0.0-224.0","","","","","","","","","","","","null","../audio/F3_01.WAV","s","F3_01","F3","female","2","4.267563","1.875","My parents, my two sisters, and my two brothers.","","","","","","","","","","","","","",""
"","","","","","html-keyboard-response","225","782462","0.0-225.0","","","","","","","","","","","","310","
            <center>
                <div id=""clip1"" class=""visual"">Clip 1<p>Press ""S""</p></div>
                <div id=""clip2"" class=""visual"">Clip 2<p>Press ""L""</p></div>
            </center>
            <p style=""text-align:center"">Which clip sounds more like someone who was born in Boston?</p>","s","","","","","","","","9","F4_02","F3_01","F4","F3","female","female","Yeah, a little bit, like elementary school.","My parents, my two sisters, and my two brothers.","short","4","1","",""
"","","","","","audio-keyboard-response","226","785974","0.0-226.0","","","","","","","","","","","","null","../audio/M1_02.WAV","null","M1_02","M1","male","1","1.508312","4.539559014","It's a really nice place to live.","","","","","","","","","","","","","",""
"","","","","","audio-keyboard-response","227","787765","0.0-227.0","","","","","","","","","","","","null","../audio/M4_02.WAV","s","M4_02","M4","male","2","1.785187","3.361","I'm still struggling to be honest.","","","","","","","","","","","","","",""
"","","","","","html-keyboard-response","228","789769","0.0-228.0","","","","","","","","","","","","676","
            <center>
                <div id=""clip1"" class=""visual"">Clip 1<p>Press ""S""</p></div>
                <div id=""clip2"" class=""visual"">Clip 2<p>Press ""L""</p></div>
            </center>
            <p style=""text-align:center"">Which clip sounds more like someone who was born in Boston?</p>","s","","","","","","","","10","M1_02","M4_02","M1","M4","male","male","It's a really nice place to live.","I'm still struggling to be honest.","short","4","1","",""
"","","","","","audio-keyboard-response","229","793788","0.0-229.0","","","","","","","","","","","","null","../audio/M5_01.WAV","null","M5_01","M5","male","1","2.002865","2.994","All of us were very young, so...","","","","","","","","","","","","","",""
"","","","","","audio-keyboard-response","230","795305","0.0-230.0","","","","","","","","","","","","null","../audio/M1_02.WAV","s","M1_02","M1","male","2","1.508312","4.539559014","It's a really nice place to live.","","","","","","","","","","","","","",""
"","","","","","html-keyboard-response","231","797309","0.0-231.0","","","","","","","","","","","","282","
            <center>
                <div id=""clip1"" class=""visual"">Clip 1<p>Press ""S""</p></div>
                <div id=""clip2"" class=""visual"">Clip 2<p>Press ""L""</p></div>
            </center>
            <p style=""text-align:center"">Which clip sounds more like someone who was born in Boston?</p>","s","","","","","","","","11","M5_01","M1_02","M5","M1","male","male","All of us were very young, so...","It's a really nice place to live.","short","4","1","",""
"","","","","","audio-keyboard-response","232","801450","0.0-232.0","","","","","","","","","","","","null","../audio/M4_01.WAV","null","M4_01","M4","male","1","2.112052","2.841","The main source is from class.","","","","","","","","","","","","","",""
"","","","","","audio-keyboard-response","233","804371","0.0-233.0","","","","","","","","","","","","null","../audio/F4_02.WAV","l","F4_02","F4","female","2","2.916635","2.058","Yeah, a little bit, like elementary school.","","","","","","","","","","","","","",""
"","","","","","html-keyboard-response","234","806377","0.0-234.0","","","","","","","","","","","","682","
            <center>
                <div id=""clip1"" class=""visual"">Clip 1<p>Press ""S""</p></div>
                <div id=""clip2"" class=""visual"">Clip 2<p>Press ""L""</p></div>
            </center>
            <p style=""text-align:center"">Which clip sounds more like someone who was born in Boston?</p>","l","","","","","","","","12","M4_01","F4_02","M4","F4","male","female","The main source is from class.","Yeah, a little bit, like elementary school.","short","4","1","",""
"","","","","","audio-keyboard-response","235","809962","0.0-235.0","","","","","","","","","","","","null","../audio/M5_02.WAV","null","M5_02","M5","male","1","1.560854","3.204","In December, it was cold.","","","","","","","","","","","","","",""
"","","","","","audio-keyboard-response","236","812976","0.0-236.0","","","","","","","","","","","","null","../audio/M2_01.WAV","s","M2_01","M2","male","2","3.0","2.667","The airport is basically a one-story building.","","","","","","","","","","","","","",""
"","","","","","html-keyboard-response","237","814991","0.0-237.0","","","","","","","","","","","","311","
            <center>
                <div id=""clip1"" class=""visual"">Clip 1<p>Press ""S""</p></div>
                <div id=""clip2"" class=""visual"">Clip 2<p>Press ""L""</p></div>
            </center>
            <p style=""text-align:center"">Which clip sounds more like someone who was born in Boston?</p>","s","","","","","","","","13","M5_02","M2_01","M5","M2","male","male","In December, it was cold.","The airport is basically a one-story building.","short","4","1","",""
"","","","","","audio-keyboard-response","238","819018","0.0-238.0","","","","","","","","","","","","null","../audio/F5_02.WAV","null","F5_02","F5","female","1","2.006958","2.491","We sort of like stay together.","","","","","","","","","","","","","",""
"","","","","","audio-keyboard-response","239","823467","0.0-239.0","","","","","","","","","","","","null","../audio/F3_02.WAV","l","F3_02","F3","female","2","4.438833","2.253","So it wasn't residential on both sides of the street...","","","","","","","","","","","","","",""
"","","","","","html-keyboard-response","240","825480","0.0-240.0","","","","","","","","","","","","342","
            <center>
                <div id=""clip1"" class=""visual"">Clip 1<p>Press ""S""</p></div>
                <div id=""clip2"" class=""visual"">Clip 2<p>Press ""L""</p></div>
            </center>
            <p style=""text-align:center"">Which clip sounds more like someone who was born in Boston?</p>","l","","","","","","","","14","F5_02","F3_02","F5","F3","female","female","We sort of like stay together.","So it wasn't residential on both sides of the street...","short","4","1","",""
"","","","","","audio-keyboard-response","241","829204","0.0-241.0","","","","","","","","","","","","null","../audio/M3_02.WAV","null","M3_02","M3","male","1","1.70975","2.924","And then on Sunday morning","","","","","","","","","","","","","",""
"","","","","","audio-keyboard-response","242","830869","0.0-242.0","","","","","","","","","","","","null","../audio/M3_01.WAV","s","M3_01","M3","male","2","1.659469","2.411","To further my education.","","","","","","","","","","","","","",""
"","","","","","html-keyboard-response","243","832881","0.0-243.0","","","","","","","","","","","","745","
            <center>
                <div id=""clip1"" class=""visual"">Clip 1<p>Press ""S""</p></div>
                <div id=""clip2"" class=""visual"">Clip 2<p>Press ""L""</p></div>
            </center>
            <p style=""text-align:center"">Which clip sounds more like someone who was born in Boston?</p>","s","","","","","","","","15","M3_02","M3_01","M3","M3","male","male","And then on Sunday morning","To further my education.","short","4","1","",""
"","","","","","audio-keyboard-response","244","836048","0.0-244.0","","","","","","","","","","","","null","../audio/F5_01.WAV","null","F5_01","F5","female","1","1.144573","3.495","He worked very hard.","","","","","","","","","","","","","",""
"","","","","","audio-keyboard-response","245","837888","0.0-245.0","","","","","","","","","","","","null","../audio/F4_01.WAV","l","F4_01","F4","female","2","1.835479","2.724","Probably right before I turn six.","","","","","","","","","","","","","",""
"","","","","","html-keyboard-response","246","839905","0.0-246.0","","","","","","","","","","","","394","
            <center>
                <div id=""clip1"" class=""visual"">Clip 1<p>Press ""S""</p></div>
                <div id=""clip2"" class=""visual"">Clip 2<p>Press ""L""</p></div>
            </center>
            <p style=""text-align:center"">Which clip sounds more like someone who was born in Boston?</p>","l","","","","","","","","16","F5_01","F4_01","F5","F4","female","female","He worked very hard.","Probably right before I turn six.","short","4","1","",""
"","","","","","audio-keyboard-response","247","843402","0.0-247.0","","","","","","","","","","","","null","../audio/M1_01.WAV","null","M1_01","M1","male","1","1.480896","5.043558001","You kind of get spoiled.","","","","","","","","","","","","","",""
"","","","","","audio-keyboard-response","248","846133","0.0-248.0","","","","","","","","","","","","null","../audio/F1_01.WAV","s","F1_01","F1","female","2","2.72926","1.832","Because of the limited space.","","","","","","","","","","","","","",""
"","","","","","html-keyboard-response","249","848137","0.0-249.0","","","","","","","","","","","","411","
            <center>
                <div id=""clip1"" class=""visual"">Clip 1<p>Press ""S""</p></div>
                <div id=""clip2"" class=""visual"">Clip 2<p>Press ""L""</p></div>
            </center>
            <p style=""text-align:center"">Which clip sounds more like someone who was born in Boston?</p>","s","","","","","","","","17","M1_01","F1_01","M1","F1","male","female","You kind of get spoiled.","Because of the limited space.","short","4","1","",""
"","","","","","audio-keyboard-response","250","851927","0.0-250.0","","","","","","","","","","","","null","../audio/M4_02.WAV","null","M4_02","M4","male","1","1.785187","3.361","I'm still struggling to be honest.","","","","","","","","","","","","","",""
"","","","","","audio-keyboard-response","251","854389","0.0-251.0","","","","","","","","","","","","null","../audio/F1_02.WAV","l","F1_02","F1","female","2","2.456333","2.442","I end up going to high school.","","","","","","","","","","","","","",""
"","","","","","html-keyboard-response","252","856396","0.0-252.0","","","","","","","","","","","","439","
            <center>
                <div id=""clip1"" class=""visual"">Clip 1<p>Press ""S""</p></div>
                <div id=""clip2"" class=""visual"">Clip 2<p>Press ""L""</p></div>
            </center>
            <p style=""text-align:center"">Which clip sounds more like someone who was born in Boston?</p>","l","","","","","","","","18","M4_02","F1_02","M4","F1","male","female","I'm still struggling to be honest.","I end up going to high school.","short","4","1","",""
