"success","timeout","failed_images","failed_audio","failed_video","trial_type","trial_index","time_elapsed","internal_node_id","width","height","webaudio","browser","browser_version","mobile","os","fullscreen","vsync_rate","webcam","microphone","rt","stimulus","response","ID","talker","gender","order","duration","speech_rate","transcript","Order","clip1_id","clip2_id","clip1_speaker","clip2_speaker","clip1_gender","clip2_gender","clip1_transcript","clip2_transcript","block_type","block_number","counterbalance_id","accuracy","question_order"
"true","false","[]","[]","[]","preload","0","1659","0.0-0.0","","","","","","","","","","","","","","","","","","","","","","","","","","","","","","","","","","",""
"true","false","[]","[]","[]","preload","1","5728","0.0-1.0","","","","","","","","","","","","","","","","","","","","","","","","","","","","","","","","","","",""
"","","","","","browser-check","2","6487","0.0-2.0","1512","857","true","chrome","137.0.0","false","Mac OS","true","120.17","true","true","","","","","","","","","","","","","","","","","","","","","","","",""
"","","","","","html-button-response","3","17094","0.0-3.0","","","","","","","","","","","","10352","
        <div class=""text"" id=""instruction"" >
            <img src=""../images/stanford_logo.png"" alt=""stanford logo"" width=""180"" height=""80"">
            <p><b>Only complete this study if you are a Massachussets resident who is 18 years old or older.</b></p>
            <p>Please share this link with other people you know who live in the area, but <u>do not participate in this study more than once</u>.
            <BR>You will not be compensated more than once.</p> 
            <p>In this experiment, you will be listening to pairs of audio clips.</p>
            <p>Each pair of audio clips will be played once in consecutive order. Your task is to decide which one of the clips sounds like the speaker was born in Boston.</p>
            <p>Please ensure that you use earphones or headphones for the duration of this experiment.</p>
            <p>This experiment should be completed on a <b><u>desktop or laptop</u></b> using the <b><u>Google Chrome browser</u></b>.</p>
            <p>The experiment will take approximately 20 minutes. You will be compensated as advertised on Prolific for your time.</p>
        </div>
      ","0","","","","","","","","","","","","","","","","","","","","",""
"","","","","","html-button-response","4","20766","0.0-4.0","","","","","","","","","","","","3418","<p><strong>Thank you for your participation in this study. Please read the protocol below.</strong></p>
        <p>Protocol Director: Robert Hawkins</P
        <p>Protocol Title: Communication and social cognition in natural audiovisual contexts IRB# 77226</p>
        <p>DESCRIPTION: You are invited to participate in a research study about language and communication. 
        The purpose of the research is to understand how you interact and communicate with other people in naturalistic settings as a fluent English speaker. 
        This research will be conducted through the Prolific platform, including participants from the US, UK, and Canada. 
        If you decide to participate in this research, you will play a communication game in a group with one or more partners.</p>
        <p>TIME INVOLVEMENT: The task will last the amount of time advertised on Prolific. You are free to withdraw from the study at any time.</p>
        <p>RISKS AND BENEFITS: You may become frustrated if your partner gets distracted, or experience discomfort if other participants in your group 
        send text that is inappropriate for the task. We ask you to please be respectful of other participants you might be
        interacting with to mitigate these risks. You may also experience discomfort when being asked to discuss or challenge emotionally salient political beliefs. Study data will be
        stored securely, in compliance with Stanford University standards, minimizing the risk of confidentiality breach. This study advances our scientific understanding of how people
        communication and collaborate in naturalistic settings. This study may lead to further
        insights about what can go wrong in teamwork, suggest potential interventions to
        overcome these barriers, and help to develop assistive technologies that collaborate with
        human partners. We cannot and do not guarantee or promise that you will receive any benefits from this study.</p>
        <p>PAYMENTS: You will receive payment in the amount advertised on Prolific. If you do not complete this study, you will receive prorated payment based on the time that you have
        spent. Additionally, you may be eligible for bonus payments as described in the instructions.</p>
        <p> PARTICIPANTS RIGHTS: If you have read this form and have decided to participate in this project, please understand your participation is voluntary and you have the right
        to withdraw your consent or discontinue participation at any time without penalty or loss of benefits to which you are otherwise entitled. The alternative
        is not to participate. You have the right to refuse to answer particular questions. The results of this research study may be presented at scientific or professional meetings or
        published in scientific journals. Your individual privacy will be maintained in all published and written data resulting from the study. In accordance with scientific norms, the data
        from this study may be used or shared with other researchers for future research (after removing personally identifying information) without additional consent from you.</p>
        <p>CONTACT INFORMATION: Questions: If you have any questions, concerns or complaints about this research, its procedures, risks and benefits, contact the Protocol Director, Robert Hawkins (rdhawkins@stanford.edu, 217-549-6923).</p>
        <p>Independent Contact: If you are not satisfied with how this study is being conducted, or if you have any concerns, complaints, or general questions about the research or your rights as a participant, please contact the Stanford Institutional Review Board (IRB) to
        speak to someone independent of the research team at 650-723-2480 or toll free at 1-866-680-2906, or email at irbnonmed@stanford.edu. You can also write to the Stanford IRB, Stanford University, 1705 El Camino Real, Palo Alto, CA 94306. Please save or print a
        copy of this page for your records.</p>
        <p>If you agree to participate in this research, press the <strong>CONTINUE</strong> button to begin.</p> 
      ","0","","","","","","","","","","","","","","","","","","","","",""
"","","","","","cloze","5","32013","0.0-5.0","","","","","","","","","","","","","","[""friends""]","","","","","","","","","","","","","","","","","","","","",""
"","","","","","html-button-response","6","40384","0.0-6.0","","","","","","","","","","","","8116","
    <center>
      <div class=""instruction-box"">
        <p>You will now begin the practice trials.</p>
        <p>In each trial, two audio clips will play one after another. You will hear a variety of sentences and phrases spoken by different talkers.</p>
        <p>Each audio clip will only be played once and you will not be able to replay them.</p>
        <p><strong>Your task is to decide which clip sounds more like the speaker was born in Boston.</strong></p>
        <p><strong>These clips come from a range of different people so they might not all sound like your typical Bostonian, but just make your best guess as quickly as possible.</strong></p>        
  </center>
        ","0","","","","","","","","","","","","","","","","","","","","",""
"","","","","","html-button-response","7","53160","0.0-7.0","","","","","","","","","","","","12522","
    <center>   
      <div class=""instruction-box"">   
        <p>Please place your left index finger on the ""S"" key and your right index finger on the ""L"" key.</p>
        <p><img src=""../procedures/keyboard.png"" width=""500"" style=""margin-top:-10px""></p>
        <p>If the <strong>first clip</strong> sounds more like someone who was born in Boston, please <strong>press S</strong>.</p>
        <p>If the <strong>second clip</strong> sounds more like someone who was born in Boston, please <strong>press L</strong>.</p>
        <p><b>Respond as quickly as possible when both clips have finished playing.</b></p>
        <p>This is a timed task. If you do not respond in time, the next question will appear automatically.</p>
        <p><b>Please answer as quickly and accurately as possible.</b></p>
    </center>
        ","0","","","","","","","","","","","","","","","","","","","","",""
"","","","","","audio-keyboard-response","8","57417","0.0-8.0","","","","","","","","","","","","null","../practice/trial1_clip1.WAV","null","practice_trial1_clip1","practice_speaker","unknown","1","4","unknown","practice_transcript","","","","","","","","","","","","","",""
"","","","","","audio-keyboard-response","9","61420","0.0-9.0","","","","","","","","","","","","null","../practice/trial1_clip2.WAV","s","practice_trial1_clip2","practice_speaker","unknown","2","4","unknown","practice_transcript","","","","","","","","","","","","","",""
"","","","","","html-keyboard-response","10","63425","0.0-10.0","","","","","","","","","","","","1426","
        <center>
            <div id=""clip1"" class=""visual"">Clip 1<p>Press ""S""</p></div>
            <div id=""clip2"" class=""visual"">Clip 2<p>Press ""L""</p></div>
        </center>
        <p style=""text-align:center"">Which clip sounds more like someone who was born in Boston?</p>","s","","","","","","","","1","practice_trial1_clip1","practice_trial1_clip2","","","","","","","","","","",""
"","","","","","audio-keyboard-response","11","68930","0.0-11.0","","","","","","","","","","","","null","../practice/trial2_clip1.WAV","null","practice_trial2_clip1","practice_speaker","unknown","1","4","unknown","practice_transcript","","","","","","","","","","","","","",""
"","","","","","audio-keyboard-response","12","72934","0.0-12.0","","","","","","","","","","","","null","../practice/trial2_clip2.WAV","l","practice_trial2_clip2","practice_speaker","unknown","2","4","unknown","practice_transcript","","","","","","","","","","","","","",""
"","","","","","html-keyboard-response","13","74937","0.0-13.0","","","","","","","","","","","","20","
        <center>
            <div id=""clip1"" class=""visual"">Clip 1<p>Press ""S""</p></div>
            <div id=""clip2"" class=""visual"">Clip 2<p>Press ""L""</p></div>
        </center>
        <p style=""text-align:center"">Which clip sounds more like someone who was born in Boston?</p>","l","","","","","","","","2","practice_trial2_clip1","practice_trial2_clip2","","","","","","","","","","",""
"","","","","","audio-keyboard-response","14","80443","0.0-14.0","","","","","","","","","","","","null","../practice/trial3_clip1.WAV","null","practice_trial3_clip1","practice_speaker","unknown","1","4","unknown","practice_transcript","","","","","","","","","","","","","",""
"","","","","","audio-keyboard-response","15","84447","0.0-15.0","","","","","","","","","","","","null","../practice/trial3_clip2.WAV","l","practice_trial3_clip2","practice_speaker","unknown","2","4","unknown","practice_transcript","","","","","","","","","","","","","",""
"","","","","","html-keyboard-response","16","86451","0.0-16.0","","","","","","","","","","","","283","
        <center>
            <div id=""clip1"" class=""visual"">Clip 1<p>Press ""S""</p></div>
            <div id=""clip2"" class=""visual"">Clip 2<p>Press ""L""</p></div>
        </center>
        <p style=""text-align:center"">Which clip sounds more like someone who was born in Boston?</p>","l","","","","","","","","3","practice_trial3_clip1","practice_trial3_clip2","","","","","","","","","","",""
"","","","","","html-button-response","17","94298","0.0-17.0","","","","","","","","","","","","6343","
    <center>
      <div class=""instruction-box"">
        <p>You will now begin the experiment.</p>
        <p>In each trial, two audio clips will play one after another. You will hear a variety of sentences and phrases spoken by different talkers.</p>
        <p>Each audio clip will only be played once and you will not be able to replay them.</p>
        <p><strong>Your task is to decide which clip sounds more like someone who was born in Boston.</strong></p>
        <p><strong>These clips come from a range of different people so they might not all sound like your typical Bostonian, but please do your best to respond as quickly as possible.</strong></p>
    </center>
        ","0","","","","","","","","","","","","","","","","","","","","",""
"","","","","","html-button-response","18","97411","0.0-18.0","","","","","","","","","","","","2859","
    <center>
      <div class=""instruction-box"">
        <p>Please place your left index finger on the ""S"" key and your right index finger on the ""L"" key.</p>
        <p><img src=""../procedures/keyboard.png"" width=""500"" style=""margin-top:-10px""></p>
        <p>If the <strong>first clip</strong> sounds more like someone who was born in Boston, please <strong>press S</strong>.</p>
        <p>If the <strong>second clip</strong> sounds more like someone who was born in Boston, please <strong>press L</strong>.</p>
        <p><b>Respond as quickly as possible when both clips have finished playing.</b></p>
        <p>This is a timed task. If you do not respond in time, the next question will appear automatically.</p>
        <p><b>Please answer as quickly and accurately as possible.</b></p>
    </center>
        ","0","","","","","","","","","","","","","","","","","","","","",""
"","","","","","audio-keyboard-response","19","101084","0.0-19.0","","","","","","","","","","","","null","../audio/F4_02.WAV","null","F4_02","F4","female","1","2.916635","2.058","Yeah, a little bit, like elementary school.","","","","","","","","","","","","","",""
"","","","","","audio-keyboard-response","20","101922","0.0-20.0","","","","","","","","","","","","null","../audio/F5_01.WAV","l","F5_01","F5","female","2","0.835490","3.592","Oh my god.","","","","","","","","","","","","","",""
"","","","","","html-keyboard-response","21","103926","0.0-21.0","","","","","","","","","","","","824","
            <center>
                <div id=""clip1"" class=""visual"">Clip 1<p>Press ""S""</p></div>
                <div id=""clip2"" class=""visual"">Clip 2<p>Press ""L""</p></div>
            </center>
            <p style=""text-align:center"">Which clip sounds more like someone who was born in Boston?</p>","l","","","","","","","","1","F4_02","F5_01","F4","F5","female","female","Yeah, a little bit, like elementary school.","Oh my god.","short","1","0","",""
"","","","","","audio-keyboard-response","22","107794","0.0-22.0","","","","","","","","","","","","null","../audio/M5_01.WAV","null","M5_01","M5","male","1","1.863625","3.755","half an hour, probably fourty five minutes away.","","","","","","","","","","","","","",""
"","","","","","audio-keyboard-response","23","109507","0.0-23.0","","","","","","","","","","","","null","../audio/M3_02.WAV","null","M3_02","M3","male","2","1.709750","2.924","And then on Sunday morning","","","","","","","","","","","","","",""
"","","","","","html-keyboard-response","24","111511","0.0-24.0","","","","","","","","","","","","null","
            <center>
                <div id=""clip1"" class=""visual"">Clip 1<p>Press ""S""</p></div>
                <div id=""clip2"" class=""visual"">Clip 2<p>Press ""L""</p></div>
            </center>
            <p style=""text-align:center"">Which clip sounds more like someone who was born in Boston?</p>","null","","","","","","","","2","M5_01","M3_02","M5","M3","male","male","half an hour, probably fourty five minutes away.","And then on Sunday morning","short","1","0","",""
"","","","","","audio-keyboard-response","25","115802","0.0-25.0","","","","","","","","","","","","null","../audio/F1_02.WAV","null","F1_02","F1","female","1","2.286385","2.187","clothes or fashion for that matter.","","","","","","","","","","","","","",""
"","","","","","audio-keyboard-response","26","117707","0.0-26.0","","","","","","","","","","","","null","../audio/F2_02.WAV","s","F2_02","F2","female","2","1.902969","2.627","And so my mother also","","","","","","","","","","","","","",""
"","","","","","html-keyboard-response","27","119711","0.0-27.0","","","","","","","","","","","","1368","
            <center>
                <div id=""clip1"" class=""visual"">Clip 1<p>Press ""S""</p></div>
                <div id=""clip2"" class=""visual"">Clip 2<p>Press ""L""</p></div>
            </center>
            <p style=""text-align:center"">Which clip sounds more like someone who was born in Boston?</p>","s","","","","","","","","3","F1_02","F2_02","F1","F2","female","female","clothes or fashion for that matter.","And so my mother also","short","1","0","",""
"","","","","","audio-keyboard-response","28","123467","0.0-28.0","","","","","","","","","","","","null","../audio/F5_02.WAV","null","F5_02","F5","female","1","1.750198","2.286","My father also, you know,","","","","","","","","","","","","","",""
"","","","","","audio-keyboard-response","29","126135","0.0-29.0","","","","","","","","","","","","null","../audio/M2_02.WAV","l","M2_02","M2","male","2","2.665333","3.001","But later on, when I traveled quite a bit,","","","","","","","","","","","","","",""
"","","","","","html-keyboard-response","30","128139","0.0-30.0","","","","","","","","","","","","609","
            <center>
                <div id=""clip1"" class=""visual"">Clip 1<p>Press ""S""</p></div>
                <div id=""clip2"" class=""visual"">Clip 2<p>Press ""L""</p></div>
            </center>
            <p style=""text-align:center"">Which clip sounds more like someone who was born in Boston?</p>","l","","","","","","","","4","F5_02","M2_02","F5","M2","female","male","My father also, you know,","But later on, when I traveled quite a bit,","short","1","0","",""
"","","","","","audio-keyboard-response","31","131169","0.0-31.0","","","","","","","","","","","","null","../audio/M2_01.WAV","null","M2_01","M2","male","1","1.025729","3.900","being in the squallor.","","","","","","","","","","","","","",""
"","","","","","audio-keyboard-response","32","132830","0.0-32.0","","","","","","","","","","","","null","../audio/M3_01.WAV","s","M3_01","M3","male","2","1.659469","2.411","to further my education.","","","","","","","","","","","","","",""
"","","","","","html-keyboard-response","33","134834","0.0-33.0","","","","","","","","","","","","1190","
            <center>
                <div id=""clip1"" class=""visual"">Clip 1<p>Press ""S""</p></div>
                <div id=""clip2"" class=""visual"">Clip 2<p>Press ""L""</p></div>
            </center>
            <p style=""text-align:center"">Which clip sounds more like someone who was born in Boston?</p>","s","","","","","","","","5","M2_01","M3_01","M2","M3","male","male","being in the squallor.","to further my education.","short","1","0","",""
"","","","","","audio-keyboard-response","34","139068","0.0-34.0","","","","","","","","","","","","null","../audio/M5_02.WAV","null","M5_02","M5","male","1","2.229229","2.244","Because back in the seventies,","","","","","","","","","","","","","",""
"","","","","","audio-keyboard-response","35","139955","0.0-35.0","","","","","","","","","","","","null","../audio/M4_01.WAV","null","M4_01","M4","male","2","0.883969","3.393","yeah last fall","","","","","","","","","","","","","",""
"","","","","","html-keyboard-response","36","141959","0.0-36.0","","","","","","","","","","","","null","
            <center>
                <div id=""clip1"" class=""visual"">Clip 1<p>Press ""S""</p></div>
                <div id=""clip2"" class=""visual"">Clip 2<p>Press ""L""</p></div>
            </center>
            <p style=""text-align:center"">Which clip sounds more like someone who was born in Boston?</p>","null","","","","","","","","6","M5_02","M4_01","M5","M4","male","male","Because back in the seventies,","yeah last fall","short","1","0","",""
"","","","","","audio-keyboard-response","37","146695","0.0-37.0","","","","","","","","","","","","null","../audio/F1_01.WAV","null","F1_01","F1","female","1","2.729260","1.832","because of the limited space.","","","","","","","","","","","","","",""
"","","","","","audio-keyboard-response","38","148353","0.0-38.0","","","","","","","","","","","","null","../audio/F2_01.WAV","l","F2_01","F2","female","2","1.654760","3.021","and then upstairs in her apartment,","","","","","","","","","","","","","",""
"","","","","","html-keyboard-response","39","150357","0.0-39.0","","","","","","","","","","","","661","
            <center>
                <div id=""clip1"" class=""visual"">Clip 1<p>Press ""S""</p></div>
                <div id=""clip2"" class=""visual"">Clip 2<p>Press ""L""</p></div>
            </center>
            <p style=""text-align:center"">Which clip sounds more like someone who was born in Boston?</p>","l","","","","","","","","7","F1_01","F2_01","F1","F2","female","female","because of the limited space.","and then upstairs in her apartment,","short","1","0","",""
"","","","","","audio-keyboard-response","40","154900","0.0-40.0","","","","","","","","","","","","null","../audio/M4_02.WAV","null","M4_02","M4","male","1","2.538281","2.364","the most intimate group of friends,","","","","","","","","","","","","","",""
"","","","","","audio-keyboard-response","41","156739","0.0-41.0","","","","","","","","","","","","null","../audio/F4_01.WAV","l","F4_01","F4","female","2","1.835479","2.724","Probably right before I turned six.","","","","","","","","","","","","","",""
"","","","","","html-keyboard-response","42","158743","0.0-42.0","","","","","","","","","","","","713","
            <center>
                <div id=""clip1"" class=""visual"">Clip 1<p>Press ""S""</p></div>
                <div id=""clip2"" class=""visual"">Clip 2<p>Press ""L""</p></div>
            </center>
            <p style=""text-align:center"">Which clip sounds more like someone who was born in Boston?</p>","l","","","","","","","","8","M4_02","F4_01","M4","F4","male","female","the most intimate group of friends,","Probably right before I turned six.","short","1","0","",""
"","","","","","audio-keyboard-response","43","165015","0.0-43.0","","","","","","","","","","","","null","../audio/F3_01.WAV","null","F3_01","F3","female","1","4.267563","1.875","my parents, my two sisters, and my two brothers.","","","","","","","","","","","","","",""
"","","","","","audio-keyboard-response","44","166185","0.0-44.0","","","","","","","","","","","","null","../audio/F3_02.WAV","s","F3_02","F3","female","2","1.165760","2.574","as homeless people.","","","","","","","","","","","","","",""
"","","","","","html-keyboard-response","45","168188","0.0-45.0","","","","","","","","","","","","1227","
            <center>
                <div id=""clip1"" class=""visual"">Clip 1<p>Press ""S""</p></div>
                <div id=""clip2"" class=""visual"">Clip 2<p>Press ""L""</p></div>
            </center>
            <p style=""text-align:center"">Which clip sounds more like someone who was born in Boston?</p>","s","","","","","","","","9","F3_01","F3_02","F3","F3","female","female","my parents, my two sisters, and my two brothers.","as homeless people.","short","1","0","",""
"","","","","","audio-keyboard-response","46","171415","0.0-46.0","","","","","","","","","","","","null","../audio/M1_01.WAV","null","M1_01","M1","male","1","1.220375","4.095","being in the medical field,","","","","","","","","","","","","","",""
"","","","","","audio-keyboard-response","47","172417","0.0-47.0","","","","","","","","","","","","null","../audio/M1_02.WAV","l","M1_02","M1","male","2","0.999906","2.000","parallel ways.","","","","","","","","","","","","","",""
"","","","","","html-keyboard-response","48","174420","0.0-48.0","","","","","","","","","","","","755","
            <center>
                <div id=""clip1"" class=""visual"">Clip 1<p>Press ""S""</p></div>
                <div id=""clip2"" class=""visual"">Clip 2<p>Press ""L""</p></div>
            </center>
            <p style=""text-align:center"">Which clip sounds more like someone who was born in Boston?</p>","l","","","","","","","","10","M1_01","M1_02","M1","M1","male","male","being in the medical field,","parallel ways.","short","1","0","",""
"","","","","","audio-keyboard-response","49","177309","0.0-49.0","","","","","","","","","","","","null","../audio/M4_01.WAV","null","M4_01","M4","male","1","0.883969","3.393","yeah last fall","","","","","","","","","","","","","",""
"","","","","","audio-keyboard-response","50","178147","0.0-50.0","","","","","","","","","","","","null","../audio/F5_01.WAV","l","F5_01","F5","female","2","0.835490","3.592","Oh my god.","","","","","","","","","","","","","",""
"","","","","","html-keyboard-response","51","180151","0.0-51.0","","","","","","","","","","","","495","
            <center>
                <div id=""clip1"" class=""visual"">Clip 1<p>Press ""S""</p></div>
                <div id=""clip2"" class=""visual"">Clip 2<p>Press ""L""</p></div>
            </center>
            <p style=""text-align:center"">Which clip sounds more like someone who was born in Boston?</p>","l","","","","","","","","11","M4_01","F5_01","M4","F5","male","female","yeah last fall","Oh my god.","short","1","0","",""
"","","","","","audio-keyboard-response","52","184386","0.0-52.0","","","","","","","","","","","","null","../audio/M5_02.WAV","null","M5_02","M5","male","1","2.229229","2.244","Because back in the seventies,","","","","","","","","","","","","","",""
"","","","","","audio-keyboard-response","53","186675","0.0-53.0","","","","","","","","","","","","null","../audio/F1_02.WAV","l","F1_02","F1","female","2","2.286385","2.187","clothes or fashion for that matter.","","","","","","","","","","","","","",""
"","","","","","html-keyboard-response","54","188679","0.0-54.0","","","","","","","","","","","","456","
            <center>
                <div id=""clip1"" class=""visual"">Clip 1<p>Press ""S""</p></div>
                <div id=""clip2"" class=""visual"">Clip 2<p>Press ""L""</p></div>
            </center>
            <p style=""text-align:center"">Which clip sounds more like someone who was born in Boston?</p>","l","","","","","","","","12","M5_02","F1_02","M5","F1","male","female","Because back in the seventies,","clothes or fashion for that matter.","short","1","0","",""
"","","","","","audio-keyboard-response","55","192520","0.0-55.0","","","","","","","","","","","","null","../audio/F4_01.WAV","null","F4_01","F4","female","1","1.835479","2.724","Probably right before I turned six.","","","","","","","","","","","","","",""
"","","","","","audio-keyboard-response","56","193743","0.0-56.0","","","","","","","","","","","","null","../audio/M1_01.WAV","s","M1_01","M1","male","2","1.220375","4.095","being in the medical field,","","","","","","","","","","","","","",""
"","","","","","html-keyboard-response","57","195747","0.0-57.0","","","","","","","","","","","","483","
            <center>
                <div id=""clip1"" class=""visual"">Clip 1<p>Press ""S""</p></div>
                <div id=""clip2"" class=""visual"">Clip 2<p>Press ""L""</p></div>
            </center>
            <p style=""text-align:center"">Which clip sounds more like someone who was born in Boston?</p>","s","","","","","","","","13","F4_01","M1_01","F4","M1","female","male","Probably right before I turned six.","being in the medical field,","short","1","0","",""
"","","","","","audio-keyboard-response","58","198752","0.0-58.0","","","","","","","","","","","","null","../audio/M1_02.WAV","null","M1_02","M1","male","1","0.999906","2.000","parallel ways.","","","","","","","","","","","","","",""
"","","","","","audio-keyboard-response","59","200656","0.0-59.0","","","","","","","","","","","","null","../audio/F2_02.WAV","l","F2_02","F2","female","2","1.902969","2.627","And so my mother also","","","","","","","","","","","","","",""
"","","","","","html-keyboard-response","60","202660","0.0-60.0","","","","","","","","","","","","665","
            <center>
                <div id=""clip1"" class=""visual"">Clip 1<p>Press ""S""</p></div>
                <div id=""clip2"" class=""visual"">Clip 2<p>Press ""L""</p></div>
            </center>
            <p style=""text-align:center"">Which clip sounds more like someone who was born in Boston?</p>","l","","","","","","","","14","M1_02","F2_02","M1","F2","male","female","parallel ways.","And so my mother also","short","1","0","",""
"","","","","","audio-keyboard-response","61","207395","0.0-61.0","","","","","","","","","","","","null","../audio/F1_01.WAV","null","F1_01","F1","female","1","2.729260","1.832","because of the limited space.","","","","","","","","","","","","","",""
"","","","","","audio-keyboard-response","62","209058","0.0-62.0","","","","","","","","","","","","null","../audio/M3_01.WAV","s","M3_01","M3","male","2","1.659469","2.411","to further my education.","","","","","","","","","","","","","",""
"","","","","","html-keyboard-response","63","211062","0.0-63.0","","","","","","","","","","","","965","
            <center>
                <div id=""clip1"" class=""visual"">Clip 1<p>Press ""S""</p></div>
                <div id=""clip2"" class=""visual"">Clip 2<p>Press ""L""</p></div>
            </center>
            <p style=""text-align:center"">Which clip sounds more like someone who was born in Boston?</p>","s","","","","","","","","15","F1_01","M3_01","F1","M3","female","male","because of the limited space.","to further my education.","short","1","0","",""
"","","","","","audio-keyboard-response","64","215984","0.0-64.0","","","","","","","","","","","","null","../audio/F4_02.WAV","null","F4_02","F4","female","1","2.916635","2.058","Yeah, a little bit, like elementary school.","","","","","","","","","","","","","",""
"","","","","","audio-keyboard-response","65","217641","0.0-65.0","","","","","","","","","","","","null","../audio/F2_01.WAV","l","F2_01","F2","female","2","1.654760","3.021","and then upstairs in her apartment,","","","","","","","","","","","","","",""
"","","","","","html-keyboard-response","66","219645","0.0-66.0","","","","","","","","","","","","599","
            <center>
                <div id=""clip1"" class=""visual"">Clip 1<p>Press ""S""</p></div>
                <div id=""clip2"" class=""visual"">Clip 2<p>Press ""L""</p></div>
            </center>
            <p style=""text-align:center"">Which clip sounds more like someone who was born in Boston?</p>","l","","","","","","","","16","F4_02","F2_01","F4","F2","female","female","Yeah, a little bit, like elementary school.","and then upstairs in her apartment,","short","1","0","",""
"","","","","","audio-keyboard-response","67","223513","0.0-67.0","","","","","","","","","","","","null","../audio/M5_01.WAV","null","M5_01","M5","male","1","1.863625","3.755","half an hour, probably fourty five minutes away.","","","","","","","","","","","","","",""
"","","","","","audio-keyboard-response","68","227784","0.0-68.0","","","","","","","","","","","","null","../audio/F3_01.WAV","l","F3_01","F3","female","2","4.267563","1.875","my parents, my two sisters, and my two brothers.","","","","","","","","","","","","","",""
"","","","","","html-keyboard-response","69","229787","0.0-69.0","","","","","","","","","","","","664","
            <center>
                <div id=""clip1"" class=""visual"">Clip 1<p>Press ""S""</p></div>
                <div id=""clip2"" class=""visual"">Clip 2<p>Press ""L""</p></div>
            </center>
            <p style=""text-align:center"">Which clip sounds more like someone who was born in Boston?</p>","l","","","","","","","","17","M5_01","F3_01","M5","F3","male","female","half an hour, probably fourty five minutes away.","my parents, my two sisters, and my two brothers.","short","1","0","",""
"","","","","","audio-keyboard-response","70","233501","0.0-70.0","","","","","","","","","","","","null","../audio/M3_02.WAV","null","M3_02","M3","male","1","1.709750","2.924","And then on Sunday morning","","","","","","","","","","","","","",""
"","","","","","audio-keyboard-response","71","234530","0.0-71.0","","","","","","","","","","","","null","../audio/M2_01.WAV","l","M2_01","M2","male","2","1.025729","3.900","being in the squallor.","","","","","","","","","","","","","",""
"","","","","","html-keyboard-response","72","236533","0.0-72.0","","","","","","","","","","","","510","
            <center>
                <div id=""clip1"" class=""visual"">Clip 1<p>Press ""S""</p></div>
                <div id=""clip2"" class=""visual"">Clip 2<p>Press ""L""</p></div>
            </center>
            <p style=""text-align:center"">Which clip sounds more like someone who was born in Boston?</p>","l","","","","","","","","18","M3_02","M2_01","M3","M2","male","male","And then on Sunday morning","being in the squallor.","short","1","0","",""
"","","","","","audio-keyboard-response","73","241077","0.0-73.0","","","","","","","","","","","","null","../audio/M4_02.WAV","null","M4_02","M4","male","1","2.538281","2.364","the most intimate group of friends,","","","","","","","","","","","","","",""
"","","","","","audio-keyboard-response","74","242830","0.0-74.0","","","","","","","","","","","","null","../audio/F5_02.WAV","l","F5_02","F5","female","2","1.750198","2.286","My father also, you know,","","","","","","","","","","","","","",""
"","","","","","html-keyboard-response","75","244834","0.0-75.0","","","","","","","","","","","","432","
            <center>
                <div id=""clip1"" class=""visual"">Clip 1<p>Press ""S""</p></div>
                <div id=""clip2"" class=""visual"">Clip 2<p>Press ""L""</p></div>
            </center>
            <p style=""text-align:center"">Which clip sounds more like someone who was born in Boston?</p>","l","","","","","","","","19","M4_02","F5_02","M4","F5","male","female","the most intimate group of friends,","My father also, you know,","short","1","0","",""
"","","","","","audio-keyboard-response","76","248004","0.0-76.0","","","","","","","","","","","","null","../audio/F3_02.WAV","null","F3_02","F3","female","1","1.165760","2.574","as homeless people.","","","","","","","","","","","","","",""
"","","","","","audio-keyboard-response","77","250672","0.0-77.0","","","","","","","","","","","","null","../audio/M2_02.WAV","l","M2_02","M2","male","2","2.665333","3.001","But later on, when I traveled quite a bit,","","","","","","","","","","","","","",""
"","","","","","html-keyboard-response","78","252676","0.0-78.0","","","","","","","","","","","","390","
            <center>
                <div id=""clip1"" class=""visual"">Clip 1<p>Press ""S""</p></div>
                <div id=""clip2"" class=""visual"">Clip 2<p>Press ""L""</p></div>
            </center>
            <p style=""text-align:center"">Which clip sounds more like someone who was born in Boston?</p>","l","","","","","","","","20","F3_02","M2_02","F3","M2","female","male","as homeless people.","But later on, when I traveled quite a bit,","short","1","0","",""
"","","","","","audio-keyboard-response","79","258950","0.0-79.0","","","","","","","","","","","","null","../audio/F3_01.WAV","null","F3_01","F3","female","1","4.267563","1.875","my parents, my two sisters, and my two brothers.","","","","","","","","","","","","","",""
"","","","","","audio-keyboard-response","80","259951","0.0-80.0","","","","","","","","","","","","null","../audio/M1_02.WAV","s","M1_02","M1","male","2","0.999906","2.000","parallel ways.","","","","","","","","","","","","","",""
"","","","","","html-keyboard-response","81","261955","0.0-81.0","","","","","","","","","","","","592","
            <center>
                <div id=""clip1"" class=""visual"">Clip 1<p>Press ""S""</p></div>
                <div id=""clip2"" class=""visual"">Clip 2<p>Press ""L""</p></div>
            </center>
            <p style=""text-align:center"">Which clip sounds more like someone who was born in Boston?</p>","s","","","","","","","","1","F3_01","M1_02","F3","M1","female","male","my parents, my two sisters, and my two brothers.","parallel ways.","short","2","0","",""
"","","","","","audio-keyboard-response","82","265670","0.0-82.0","","","","","","","","","","","","null","../audio/M3_02.WAV","null","M3_02","M3","male","1","1.709750","2.924","And then on Sunday morning","","","","","","","","","","","","","",""
"","","","","","audio-keyboard-response","83","267575","0.0-83.0","","","","","","","","","","","","null","../audio/F2_02.WAV","l","F2_02","F2","female","2","1.902969","2.627","And so my mother also","","","","","","","","","","","","","",""
"","","","","","html-keyboard-response","84","269579","0.0-84.0","","","","","","","","","","","","337","
            <center>
                <div id=""clip1"" class=""visual"">Clip 1<p>Press ""S""</p></div>
                <div id=""clip2"" class=""visual"">Clip 2<p>Press ""L""</p></div>
            </center>
            <p style=""text-align:center"">Which clip sounds more like someone who was born in Boston?</p>","l","","","","","","","","2","M3_02","F2_02","M3","F2","male","female","And then on Sunday morning","And so my mother also","short","2","0","",""
"","","","","","audio-keyboard-response","85","273869","0.0-85.0","","","","","","","","","","","","null","../audio/F1_02.WAV","null","F1_02","F1","female","1","2.286385","2.187","clothes or fashion for that matter.","","","","","","","","","","","","","",""
"","","","","","audio-keyboard-response","86","275736","0.0-86.0","","","","","","","","","","","","null","../audio/M5_01.WAV","s","M5_01","M5","male","2","1.863625","3.755","half an hour, probably fourty five minutes away.","","","","","","","","","","","","","",""
"","","","","","html-keyboard-response","87","277739","0.0-87.0","","","","","","","","","","","","435","
            <center>
                <div id=""clip1"" class=""visual"">Clip 1<p>Press ""S""</p></div>
                <div id=""clip2"" class=""visual"">Clip 2<p>Press ""L""</p></div>
            </center>
            <p style=""text-align:center"">Which clip sounds more like someone who was born in Boston?</p>","s","","","","","","","","3","F1_02","M5_01","F1","M5","female","male","clothes or fashion for that matter.","half an hour, probably fourty five minutes away.","short","2","0","",""
"","","","","","audio-keyboard-response","88","282474","0.0-88.0","","","","","","","","","","","","null","../audio/F1_01.WAV","null","F1_01","F1","female","1","2.729260","1.832","because of the limited space.","","","","","","","","","","","","","",""
"","","","","","audio-keyboard-response","89","283642","0.0-89.0","","","","","","","","","","","","null","../audio/F3_02.WAV","s","F3_02","F3","female","2","1.165760","2.574","as homeless people.","","","","","","","","","","","","","",""
"","","","","","html-keyboard-response","90","285645","0.0-90.0","","","","","","","","","","","","1428","
            <center>
                <div id=""clip1"" class=""visual"">Clip 1<p>Press ""S""</p></div>
                <div id=""clip2"" class=""visual"">Clip 2<p>Press ""L""</p></div>
            </center>
            <p style=""text-align:center"">Which clip sounds more like someone who was born in Boston?</p>","s","","","","","","","","4","F1_01","F3_02","F1","F3","female","female","because of the limited space.","as homeless people.","short","2","0","",""
"","","","","","audio-keyboard-response","91","290317","0.0-91.0","","","","","","","","","","","","null","../audio/M2_02.WAV","null","M2_02","M2","male","1","2.665333","3.001","But later on, when I traveled quite a bit,","","","","","","","","","","","","","",""
"","","","","","audio-keyboard-response","92","291155","0.0-92.0","","","","","","","","","","","","null","../audio/F5_01.WAV","s","F5_01","F5","female","2","0.835490","3.592","Oh my god.","","","","","","","","","","","","","",""
"","","","","","html-keyboard-response","93","293159","0.0-93.0","","","","","","","","","","","","827","
            <center>
                <div id=""clip1"" class=""visual"">Clip 1<p>Press ""S""</p></div>
                <div id=""clip2"" class=""visual"">Clip 2<p>Press ""L""</p></div>
            </center>
            <p style=""text-align:center"">Which clip sounds more like someone who was born in Boston?</p>","s","","","","","","","","5","M2_02","F5_01","M2","F5","male","female","But later on, when I traveled quite a bit,","Oh my god.","short","2","0","",""
"","","","","","audio-keyboard-response","94","296047","0.0-94.0","","","","","","","","","","","","null","../audio/M4_01.WAV","null","M4_01","M4","male","1","0.883969","3.393","yeah last fall","","","","","","","","","","","","","",""
"","","","","","audio-keyboard-response","95","298588","0.0-95.0","","","","","","","","","","","","null","../audio/M4_02.WAV","s","M4_02","M4","male","2","2.538281","2.364","the most intimate group of friends,","","","","","","","","","","","","","",""
"","","","","","html-keyboard-response","96","300591","0.0-96.0","","","","","","","","","","","","398","
            <center>
                <div id=""clip1"" class=""visual"">Clip 1<p>Press ""S""</p></div>
                <div id=""clip2"" class=""visual"">Clip 2<p>Press ""L""</p></div>
            </center>
            <p style=""text-align:center"">Which clip sounds more like someone who was born in Boston?</p>","s","","","","","","","","6","M4_01","M4_02","M4","M4","male","male","yeah last fall","the most intimate group of friends,","short","2","0","",""
"","","","","","audio-keyboard-response","97","304432","0.0-97.0","","","","","","","","","","","","null","../audio/F4_01.WAV","null","F4_01","F4","female","1","1.835479","2.724","Probably right before I turned six.","","","","","","","","","","","","","",""
"","","","","","audio-keyboard-response","98","307350","0.0-98.0","","","","","","","","","","","","null","../audio/F4_02.WAV","s","F4_02","F4","female","2","2.916635","2.058","Yeah, a little bit, like elementary school.","","","","","","","","","","","","","",""
"","","","","","html-keyboard-response","99","309354","0.0-99.0","","","","","","","","","","","","414","
            <center>
                <div id=""clip1"" class=""visual"">Clip 1<p>Press ""S""</p></div>
                <div id=""clip2"" class=""visual"">Clip 2<p>Press ""L""</p></div>
            </center>
            <p style=""text-align:center"">Which clip sounds more like someone who was born in Boston?</p>","s","","","","","","","","7","F4_01","F4_02","F4","F4","female","female","Probably right before I turned six.","Yeah, a little bit, like elementary school.","short","2","0","",""
"","","","","","audio-keyboard-response","100","313110","0.0-100.0","","","","","","","","","","","","null","../audio/F5_02.WAV","null","F5_02","F5","female","1","1.750198","2.286","My father also, you know,","","","","","","","","","","","","","",""
"","","","","","audio-keyboard-response","101","314767","0.0-101.0","","","","","","","","","","","","null","../audio/F2_01.WAV","l","F2_01","F2","female","2","1.654760","3.021","and then upstairs in her apartment,","","","","","","","","","","","","","",""
"","","","","","html-keyboard-response","102","316770","0.0-102.0","","","","","","","","","","","","392","
            <center>
                <div id=""clip1"" class=""visual"">Clip 1<p>Press ""S""</p></div>
                <div id=""clip2"" class=""visual"">Clip 2<p>Press ""L""</p></div>
            </center>
            <p style=""text-align:center"">Which clip sounds more like someone who was born in Boston?</p>","l","","","","","","","","8","F5_02","F2_01","F5","F2","female","female","My father also, you know,","and then upstairs in her apartment,","short","2","0","",""
"","","","","","audio-keyboard-response","103","320435","0.0-103.0","","","","","","","","","","","","null","../audio/M3_01.WAV","null","M3_01","M3","male","1","1.659469","2.411","to further my education.","","","","","","","","","","","","","",""
"","","","","","audio-keyboard-response","104","322667","0.0-104.0","","","","","","","","","","","","null","../audio/M5_02.WAV","l","M5_02","M5","male","2","2.229229","2.244","Because back in the seventies,","","","","","","","","","","","","","",""
"","","","","","html-keyboard-response","105","324671","0.0-105.0","","","","","","","","","","","","313","
            <center>
                <div id=""clip1"" class=""visual"">Clip 1<p>Press ""S""</p></div>
                <div id=""clip2"" class=""visual"">Clip 2<p>Press ""L""</p></div>
            </center>
            <p style=""text-align:center"">Which clip sounds more like someone who was born in Boston?</p>","l","","","","","","","","9","M3_01","M5_02","M3","M5","male","male","to further my education.","Because back in the seventies,","short","2","0","",""
"","","","","","audio-keyboard-response","106","327702","0.0-106.0","","","","","","","","","","","","null","../audio/M2_01.WAV","null","M2_01","M2","male","1","1.025729","3.900","being in the squallor.","","","","","","","","","","","","","",""
"","","","","","audio-keyboard-response","107","328924","0.0-107.0","","","","","","","","","","","","null","../audio/M1_01.WAV","s","M1_01","M1","male","2","1.220375","4.095","being in the medical field,","","","","","","","","","","","","","",""
"","","","","","html-keyboard-response","108","330928","0.0-108.0","","","","","","","","","","","","903","
            <center>
                <div id=""clip1"" class=""visual"">Clip 1<p>Press ""S""</p></div>
                <div id=""clip2"" class=""visual"">Clip 2<p>Press ""L""</p></div>
            </center>
            <p style=""text-align:center"">Which clip sounds more like someone who was born in Boston?</p>","s","","","","","","","","10","M2_01","M1_01","M2","M1","male","male","being in the squallor.","being in the medical field,","short","2","0","",""
"","","","","","audio-keyboard-response","109","334768","0.0-109.0","","","","","","","","","","","","null","../audio/F4_01.WAV","null","F4_01","F4","female","1","1.835479","2.724","Probably right before I turned six.","","","","","","","","","","","","","",""
"","","","","","audio-keyboard-response","110","335607","0.0-110.0","","","","","","","","","","","","null","../audio/F5_01.WAV","s","F5_01","F5","female","2","0.835490","3.592","Oh my god.","","","","","","","","","","","","","",""
"","","","","","html-keyboard-response","111","337610","0.0-111.0","","","","","","","","","","","","538","
            <center>
                <div id=""clip1"" class=""visual"">Clip 1<p>Press ""S""</p></div>
                <div id=""clip2"" class=""visual"">Clip 2<p>Press ""L""</p></div>
            </center>
            <p style=""text-align:center"">Which clip sounds more like someone who was born in Boston?</p>","s","","","","","","","","11","F4_01","F5_01","F4","F5","female","female","Probably right before I turned six.","Oh my god.","short","2","0","",""
"","","","","","audio-keyboard-response","112","340781","0.0-112.0","","","","","","","","","","","","null","../audio/F3_02.WAV","null","F3_02","F3","female","1","1.165760","2.574","as homeless people.","","","","","","","","","","","","","",""
"","","","","","audio-keyboard-response","113","343512","0.0-113.0","","","","","","","","","","","","null","../audio/F1_01.WAV","l","F1_01","F1","female","2","2.729260","1.832","because of the limited space.","","","","","","","","","","","","","",""
"","","","","","html-keyboard-response","114","345516","0.0-114.0","","","","","","","","","","","","303","
            <center>
                <div id=""clip1"" class=""visual"">Clip 1<p>Press ""S""</p></div>
                <div id=""clip2"" class=""visual"">Clip 2<p>Press ""L""</p></div>
            </center>
            <p style=""text-align:center"">Which clip sounds more like someone who was born in Boston?</p>","l","","","","","","","","12","F3_02","F1_01","F3","F1","female","female","as homeless people.","because of the limited space.","short","2","0","",""
"","","","","","audio-keyboard-response","115","348547","0.0-115.0","","","","","","","","","","","","null","../audio/M2_01.WAV","null","M2_01","M2","male","1","1.025729","3.900","being in the squallor.","","","","","","","","","","","","","",""
"","","","","","audio-keyboard-response","116","350205","0.0-116.0","","","","","","","","","","","","null","../audio/F2_01.WAV","s","F2_01","F2","female","2","1.654760","3.021","and then upstairs in her apartment,","","","","","","","","","","","","","",""
"","","","","","html-keyboard-response","117","352208","0.0-117.0","","","","","","","","","","","","802","
            <center>
                <div id=""clip1"" class=""visual"">Clip 1<p>Press ""S""</p></div>
                <div id=""clip2"" class=""visual"">Clip 2<p>Press ""L""</p></div>
            </center>
            <p style=""text-align:center"">Which clip sounds more like someone who was born in Boston?</p>","s","","","","","","","","13","M2_01","F2_01","M2","F2","male","female","being in the squallor.","and then upstairs in her apartment,","short","2","0","",""
"","","","","","audio-keyboard-response","118","355923","0.0-118.0","","","","","","","","","","","","null","../audio/M3_02.WAV","null","M3_02","M3","male","1","1.709750","2.924","And then on Sunday morning","","","","","","","","","","","","","",""
"","","","","","audio-keyboard-response","119","357828","0.0-119.0","","","","","","","","","","","","null","../audio/F2_02.WAV","l","F2_02","F2","female","2","1.902969","2.627","And so my mother also","","","","","","","","","","","","","",""
"","","","","","html-keyboard-response","120","359831","0.0-120.0","","","","","","","","","","","","345","
            <center>
                <div id=""clip1"" class=""visual"">Clip 1<p>Press ""S""</p></div>
                <div id=""clip2"" class=""visual"">Clip 2<p>Press ""L""</p></div>
            </center>
            <p style=""text-align:center"">Which clip sounds more like someone who was born in Boston?</p>","l","","","","","","","","14","M3_02","F2_02","M3","F2","male","female","And then on Sunday morning","And so my mother also","short","2","0","",""
"","","","","","audio-keyboard-response","121","363496","0.0-121.0","","","","","","","","","","","","null","../audio/M3_01.WAV","null","M3_01","M3","male","1","1.659469","2.411","to further my education.","","","","","","","","","","","","","",""
"","","","","","audio-keyboard-response","122","364382","0.0-122.0","","","","","","","","","","","","null","../audio/M4_01.WAV","s","M4_01","M4","male","2","0.883969","3.393","yeah last fall","","","","","","","","","","","","","",""
"","","","","","html-keyboard-response","123","366386","0.0-123.0","","","","","","","","","","","","1977","
            <center>
                <div id=""clip1"" class=""visual"">Clip 1<p>Press ""S""</p></div>
                <div id=""clip2"" class=""visual"">Clip 2<p>Press ""L""</p></div>
            </center>
            <p style=""text-align:center"">Which clip sounds more like someone who was born in Boston?</p>","s","","","","","","","","15","M3_01","M4_01","M3","M4","male","male","to further my education.","yeah last fall","short","2","0","",""
"","","","","","audio-keyboard-response","124","372656","0.0-124.0","","","","","","","","","","","","null","../audio/F3_01.WAV","null","F3_01","F3","female","1","4.267563","1.875","my parents, my two sisters, and my two brothers.","","","","","","","","","","","","","",""
"","","","","","audio-keyboard-response","125","375324","0.0-125.0","","","","","","","","","","","","null","../audio/M2_02.WAV","l","M2_02","M2","male","2","2.665333","3.001","But later on, when I traveled quite a bit,","","","","","","","","","","","","","",""
"","","","","","html-keyboard-response","126","377328","0.0-126.0","","","","","","","","","","","","389","
            <center>
                <div id=""clip1"" class=""visual"">Clip 1<p>Press ""S""</p></div>
                <div id=""clip2"" class=""visual"">Clip 2<p>Press ""L""</p></div>
            </center>
            <p style=""text-align:center"">Which clip sounds more like someone who was born in Boston?</p>","l","","","","","","","","16","F3_01","M2_02","F3","M2","female","male","my parents, my two sisters, and my two brothers.","But later on, when I traveled quite a bit,","short","2","0","",""
"","","","","","audio-keyboard-response","127","381564","0.0-127.0","","","","","","","","","","","","null","../audio/M5_02.WAV","null","M5_02","M5","male","1","2.229229","2.244","Because back in the seventies,","","","","","","","","","","","","","",""
"","","","","","audio-keyboard-response","128","382567","0.0-128.0","","","","","","","","","","","","null","../audio/M1_02.WAV","s","M1_02","M1","male","2","0.999906","2.000","parallel ways.","","","","","","","","","","","","","",""
"","","","","","html-keyboard-response","129","384570","0.0-129.0","","","","","","","","","","","","522","
            <center>
                <div id=""clip1"" class=""visual"">Clip 1<p>Press ""S""</p></div>
                <div id=""clip2"" class=""visual"">Clip 2<p>Press ""L""</p></div>
            </center>
            <p style=""text-align:center"">Which clip sounds more like someone who was born in Boston?</p>","s","","","","","","","","17","M5_02","M1_02","M5","M1","male","male","Because back in the seventies,","parallel ways.","short","2","0","",""
"","","","","","audio-keyboard-response","130","387796","0.0-130.0","","","","","","","","","","","","null","../audio/M1_01.WAV","null","M1_01","M1","male","1","1.220375","4.095","being in the medical field,","","","","","","","","","","","","","",""
"","","","","","audio-keyboard-response","131","389662","0.0-131.0","","","","","","","","","","","","null","../audio/M5_01.WAV","l","M5_01","M5","male","2","1.863625","3.755","half an hour, probably fourty five minutes away.","","","","","","","","","","","","","",""
"","","","","","html-keyboard-response","132","391665","0.0-132.0","","","","","","","","","","","","317","
            <center>
                <div id=""clip1"" class=""visual"">Clip 1<p>Press ""S""</p></div>
                <div id=""clip2"" class=""visual"">Clip 2<p>Press ""L""</p></div>
            </center>
            <p style=""text-align:center"">Which clip sounds more like someone who was born in Boston?</p>","l","","","","","","","","18","M1_01","M5_01","M1","M5","male","male","being in the medical field,","half an hour, probably fourty five minutes away.","short","2","0","",""
"","","","","","audio-keyboard-response","133","395957","0.0-133.0","","","","","","","","","","","","null","../audio/F1_02.WAV","null","F1_02","F1","female","1","2.286385","2.187","clothes or fashion for that matter.","","","","","","","","","","","","","",""
"","","","","","audio-keyboard-response","134","398876","0.0-134.0","","","","","","","","","","","","null","../audio/F4_02.WAV","s","F4_02","F4","female","2","2.916635","2.058","Yeah, a little bit, like elementary school.","","","","","","","","","","","","","",""
"","","","","","html-keyboard-response","135","400879","0.0-135.0","","","","","","","","","","","","1268","
            <center>
                <div id=""clip1"" class=""visual"">Clip 1<p>Press ""S""</p></div>
                <div id=""clip2"" class=""visual"">Clip 2<p>Press ""L""</p></div>
            </center>
            <p style=""text-align:center"">Which clip sounds more like someone who was born in Boston?</p>","s","","","","","","","","19","F1_02","F4_02","F1","F4","female","female","clothes or fashion for that matter.","Yeah, a little bit, like elementary school.","short","2","0","",""
"","","","","","audio-keyboard-response","136","404635","0.0-136.0","","","","","","","","","","","","null","../audio/F5_02.WAV","null","F5_02","F5","female","1","1.750198","2.286","My father also, you know,","","","","","","","","","","","","","",""
"","","","","","audio-keyboard-response","137","407176","0.0-137.0","","","","","","","","","","","","null","../audio/M4_02.WAV","l","M4_02","M4","male","2","2.538281","2.364","the most intimate group of friends,","","","","","","","","","","","","","",""
"","","","","","html-keyboard-response","138","409180","0.0-138.0","","","","","","","","","","","","394","
            <center>
                <div id=""clip1"" class=""visual"">Clip 1<p>Press ""S""</p></div>
                <div id=""clip2"" class=""visual"">Clip 2<p>Press ""L""</p></div>
            </center>
            <p style=""text-align:center"">Which clip sounds more like someone who was born in Boston?</p>","l","","","","","","","","20","F5_02","M4_02","F5","M4","female","male","My father also, you know,","the most intimate group of friends,","short","2","0","",""
"","","","","","audio-keyboard-response","139","412350","0.0-139.0","","","","","","","","","","","","null","../audio/F3_02.WAV","null","F3_02","F3","female","1","1.165760","2.574","as homeless people.","","","","","","","","","","","","","",""
"","","","","","audio-keyboard-response","140","413188","0.0-140.0","","","","","","","","","","","","null","../audio/F5_01.WAV","l","F5_01","F5","female","2","0.835490","3.592","Oh my god.","","","","","","","","","","","","","",""
"","","","","","html-keyboard-response","141","415192","0.0-141.0","","","","","","","","","","","","703","
            <center>
                <div id=""clip1"" class=""visual"">Clip 1<p>Press ""S""</p></div>
                <div id=""clip2"" class=""visual"">Clip 2<p>Press ""L""</p></div>
            </center>
            <p style=""text-align:center"">Which clip sounds more like someone who was born in Boston?</p>","l","","","","","","","","1","F3_02","F5_01","F3","F5","female","female","as homeless people.","Oh my god.","short","3","0","",""
"","","","","","audio-keyboard-response","142","420113","0.0-142.0","","","","","","","","","","","","null","../audio/F4_02.WAV","null","F4_02","F4","female","1","2.916635","2.058","Yeah, a little bit, like elementary school.","","","","","","","","","","","","","",""
"","","","","","audio-keyboard-response","143","422401","0.0-143.0","","","","","","","","","","","","null","../audio/F1_02.WAV","s","F1_02","F1","female","2","2.286385","2.187","clothes or fashion for that matter.","","","","","","","","","","","","","",""
"","","","","","html-keyboard-response","144","424405","0.0-144.0","","","","","","","","","","","","661","
            <center>
                <div id=""clip1"" class=""visual"">Clip 1<p>Press ""S""</p></div>
                <div id=""clip2"" class=""visual"">Clip 2<p>Press ""L""</p></div>
            </center>
            <p style=""text-align:center"">Which clip sounds more like someone who was born in Boston?</p>","s","","","","","","","","2","F4_02","F1_02","F4","F1","female","female","Yeah, a little bit, like elementary school.","clothes or fashion for that matter.","short","3","0","",""
"","","","","","audio-keyboard-response","145","428273","0.0-145.0","","","","","","","","","","","","null","../audio/M5_01.WAV","null","M5_01","M5","male","1","1.863625","3.755","half an hour, probably fourty five minutes away.","","","","","","","","","","","","","",""
"","","","","","audio-keyboard-response","146","431005","0.0-146.0","","","","","","","","","","","","null","../audio/F1_01.WAV","s","F1_01","F1","female","2","2.729260","1.832","because of the limited space.","","","","","","","","","","","","","",""
"","","","","","html-keyboard-response","147","433009","0.0-147.0","","","","","","","","","","","","547","
            <center>
                <div id=""clip1"" class=""visual"">Clip 1<p>Press ""S""</p></div>
                <div id=""clip2"" class=""visual"">Clip 2<p>Press ""L""</p></div>
            </center>
            <p style=""text-align:center"">Which clip sounds more like someone who was born in Boston?</p>","s","","","","","","","","3","M5_01","F1_01","M5","F1","male","female","half an hour, probably fourty five minutes away.","because of the limited space.","short","3","0","",""
"","","","","","audio-keyboard-response","148","436235","0.0-148.0","","","","","","","","","","","","null","../audio/M1_01.WAV","null","M1_01","M1","male","1","1.220375","4.095","being in the medical field,","","","","","","","","","","","","","",""
"","","","","","audio-keyboard-response","149","437237","0.0-149.0","","","","","","","","","","","","null","../audio/M1_02.WAV","l","M1_02","M1","male","2","0.999906","2.000","parallel ways.","","","","","","","","","","","","","",""
"","","","","","html-keyboard-response","150","439241","0.0-150.0","","","","","","","","","","","","990","
            <center>
                <div id=""clip1"" class=""visual"">Clip 1<p>Press ""S""</p></div>
                <div id=""clip2"" class=""visual"">Clip 2<p>Press ""L""</p></div>
            </center>
            <p style=""text-align:center"">Which clip sounds more like someone who was born in Boston?</p>","l","","","","","","","","4","M1_01","M1_02","M1","M1","male","male","being in the medical field,","parallel ways.","short","3","0","",""
"","","","","","audio-keyboard-response","151","442129","0.0-151.0","","","","","","","","","","","","null","../audio/M4_01.WAV","null","M4_01","M4","male","1","0.883969","3.393","yeah last fall","","","","","","","","","","","","","",""
"","","","","","audio-keyboard-response","152","443786","0.0-152.0","","","","","","","","","","","","null","../audio/F2_01.WAV","l","F2_01","F2","female","2","1.654760","3.021","and then upstairs in her apartment,","","","","","","","","","","","","","",""
"","","","","","html-keyboard-response","153","445789","0.0-153.0","","","","","","","","","","","","1065","
            <center>
                <div id=""clip1"" class=""visual"">Clip 1<p>Press ""S""</p></div>
                <div id=""clip2"" class=""visual"">Clip 2<p>Press ""L""</p></div>
            </center>
            <p style=""text-align:center"">Which clip sounds more like someone who was born in Boston?</p>","l","","","","","","","","5","M4_01","F2_01","M4","F2","male","female","yeah last fall","and then upstairs in her apartment,","short","3","0","",""
"","","","","","audio-keyboard-response","154","452061","0.0-154.0","","","","","","","","","","","","null","../audio/F3_01.WAV","null","F3_01","F3","female","1","4.267563","1.875","my parents, my two sisters, and my two brothers.","","","","","","","","","","","","","",""
"","","","","","audio-keyboard-response","155","454601","0.0-155.0","","","","","","","","","","","","null","../audio/M4_02.WAV","s","M4_02","M4","male","2","2.538281","2.364","the most intimate group of friends,","","","","","","","","","","","","","",""
"","","","","","html-keyboard-response","156","456605","0.0-156.0","","","","","","","","","","","","409","
            <center>
                <div id=""clip1"" class=""visual"">Clip 1<p>Press ""S""</p></div>
                <div id=""clip2"" class=""visual"">Clip 2<p>Press ""L""</p></div>
            </center>
            <p style=""text-align:center"">Which clip sounds more like someone who was born in Boston?</p>","s","","","","","","","","6","F3_01","M4_02","F3","M4","female","male","my parents, my two sisters, and my two brothers.","the most intimate group of friends,","short","3","0","",""
"","","","","","audio-keyboard-response","157","460359","0.0-157.0","","","","","","","","","","","","null","../audio/F5_02.WAV","null","F5_02","F5","female","1","1.750198","2.286","My father also, you know,","","","","","","","","","","","","","",""
"","","","","","audio-keyboard-response","158","462198","0.0-158.0","","","","","","","","","","","","null","../audio/F4_01.WAV","l","F4_01","F4","female","2","1.835479","2.724","Probably right before I turned six.","","","","","","","","","","","","","",""
"","","","","","html-keyboard-response","159","464201","0.0-159.0","","","","","","","","","","","","443","
            <center>
                <div id=""clip1"" class=""visual"">Clip 1<p>Press ""S""</p></div>
                <div id=""clip2"" class=""visual"">Clip 2<p>Press ""L""</p></div>
            </center>
            <p style=""text-align:center"">Which clip sounds more like someone who was born in Boston?</p>","l","","","","","","","","7","F5_02","F4_01","F5","F4","female","female","My father also, you know,","Probably right before I turned six.","short","3","0","",""
"","","","","","audio-keyboard-response","160","468108","0.0-160.0","","","","","","","","","","","","null","../audio/F2_02.WAV","null","F2_02","F2","female","1","1.902969","2.627","And so my mother also","","","","","","","","","","","","","",""
"","","","","","audio-keyboard-response","161","469137","0.0-161.0","","","","","","","","","","","","null","../audio/M2_01.WAV","l","M2_01","M2","male","2","1.025729","3.900","being in the squallor.","","","","","","","","","","","","","",""
"","","","","","html-keyboard-response","162","471140","0.0-162.0","","","","","","","","","","","","762","
            <center>
                <div id=""clip1"" class=""visual"">Clip 1<p>Press ""S""</p></div>
                <div id=""clip2"" class=""visual"">Clip 2<p>Press ""L""</p></div>
            </center>
            <p style=""text-align:center"">Which clip sounds more like someone who was born in Boston?</p>","l","","","","","","","","8","F2_02","M2_01","F2","M2","female","male","And so my mother also","being in the squallor.","short","3","0","",""
"","","","","","audio-keyboard-response","163","475811","0.0-163.0","","","","","","","","","","","","null","../audio/M2_02.WAV","null","M2_02","M2","male","1","2.665333","3.001","But later on, when I traveled quite a bit,","","","","","","","","","","","","","",""
"","","","","","audio-keyboard-response","164","477524","0.0-164.0","","","","","","","","","","","","null","../audio/M3_02.WAV","s","M3_02","M3","male","2","1.709750","2.924","And then on Sunday morning","","","","","","","","","","","","","",""
"","","","","","html-keyboard-response","165","479527","0.0-165.0","","","","","","","","","","","","441","
            <center>
                <div id=""clip1"" class=""visual"">Clip 1<p>Press ""S""</p></div>
                <div id=""clip2"" class=""visual"">Clip 2<p>Press ""L""</p></div>
            </center>
            <p style=""text-align:center"">Which clip sounds more like someone who was born in Boston?</p>","s","","","","","","","","9","M2_02","M3_02","M2","M3","male","male","But later on, when I traveled quite a bit,","And then on Sunday morning","short","3","0","",""
"","","","","","audio-keyboard-response","166","483762","0.0-166.0","","","","","","","","","","","","null","../audio/M5_02.WAV","null","M5_02","M5","male","1","2.229229","2.244","Because back in the seventies,","","","","","","","","","","","","","",""
"","","","","","audio-keyboard-response","167","485424","0.0-167.0","","","","","","","","","","","","null","../audio/M3_01.WAV","s","M3_01","M3","male","2","1.659469","2.411","to further my education.","","","","","","","","","","","","","",""
"","","","","","html-keyboard-response","168","487428","0.0-168.0","","","","","","","","","","","","773","
            <center>
                <div id=""clip1"" class=""visual"">Clip 1<p>Press ""S""</p></div>
                <div id=""clip2"" class=""visual"">Clip 2<p>Press ""L""</p></div>
            </center>
            <p style=""text-align:center"">Which clip sounds more like someone who was born in Boston?</p>","s","","","","","","","","10","M5_02","M3_01","M5","M3","male","male","Because back in the seventies,","to further my education.","short","3","0","",""
"","","","","","audio-keyboard-response","169","490598","0.0-169.0","","","","","","","","","","","","null","../audio/F3_02.WAV","null","F3_02","F3","female","1","1.165760","2.574","as homeless people.","","","","","","","","","","","","","",""
"","","","","","audio-keyboard-response","170","492504","0.0-170.0","","","","","","","","","","","","null","../audio/F2_02.WAV","l","F2_02","F2","female","2","1.902969","2.627","And so my mother also","","","","","","","","","","","","","",""
"","","","","","html-keyboard-response","171","494506","0.0-171.0","","","","","","","","","","","","394","
            <center>
                <div id=""clip1"" class=""visual"">Clip 1<p>Press ""S""</p></div>
                <div id=""clip2"" class=""visual"">Clip 2<p>Press ""L""</p></div>
            </center>
            <p style=""text-align:center"">Which clip sounds more like someone who was born in Boston?</p>","l","","","","","","","","11","F3_02","F2_02","F3","F2","female","female","as homeless people.","And so my mother also","short","3","0","",""
"","","","","","audio-keyboard-response","172","499428","0.0-172.0","","","","","","","","","","","","null","../audio/F4_02.WAV","null","F4_02","F4","female","1","2.916635","2.058","Yeah, a little bit, like elementary school.","","","","","","","","","","","","","",""
"","","","","","audio-keyboard-response","173","501716","0.0-173.0","","","","","","","","","","","","null","../audio/F1_02.WAV","l","F1_02","F1","female","2","2.286385","2.187","clothes or fashion for that matter.","","","","","","","","","","","","","",""
"","","","","","html-keyboard-response","174","503719","0.0-174.0","","","","","","","","","","","","591","
            <center>
                <div id=""clip1"" class=""visual"">Clip 1<p>Press ""S""</p></div>
                <div id=""clip2"" class=""visual"">Clip 2<p>Press ""L""</p></div>
            </center>
            <p style=""text-align:center"">Which clip sounds more like someone who was born in Boston?</p>","l","","","","","","","","12","F4_02","F1_02","F4","F1","female","female","Yeah, a little bit, like elementary school.","clothes or fashion for that matter.","short","3","0","",""
"","","","","","audio-keyboard-response","175","506944","0.0-175.0","","","","","","","","","","","","null","../audio/M1_01.WAV","null","M1_01","M1","male","1","1.220375","4.095","being in the medical field,","","","","","","","","","","","","","",""
"","","","","","audio-keyboard-response","176","511214","0.0-176.0","","","","","","","","","","","","null","../audio/F3_01.WAV","l","F3_01","F3","female","2","4.267563","1.875","my parents, my two sisters, and my two brothers.","","","","","","","","","","","","","",""
"","","","","","html-keyboard-response","177","513217","0.0-177.0","","","","","","","","","","","","473","
            <center>
                <div id=""clip1"" class=""visual"">Clip 1<p>Press ""S""</p></div>
                <div id=""clip2"" class=""visual"">Clip 2<p>Press ""L""</p></div>
            </center>
            <p style=""text-align:center"">Which clip sounds more like someone who was born in Boston?</p>","l","","","","","","","","13","M1_01","F3_01","M1","F3","male","female","being in the medical field,","my parents, my two sisters, and my two brothers.","short","3","0","",""
"","","","","","audio-keyboard-response","178","516881","0.0-178.0","","","","","","","","","","","","null","../audio/M3_01.WAV","null","M3_01","M3","male","1","1.659469","2.411","to further my education.","","","","","","","","","","","","","",""
"","","","","","audio-keyboard-response","179","518635","0.0-179.0","","","","","","","","","","","","null","../audio/F5_02.WAV","l","F5_02","F5","female","2","1.750198","2.286","My father also, you know,","","","","","","","","","","","","","",""
"","","","","","html-keyboard-response","180","520639","0.0-180.0","","","","","","","","","","","","615","
            <center>
                <div id=""clip1"" class=""visual"">Clip 1<p>Press ""S""</p></div>
                <div id=""clip2"" class=""visual"">Clip 2<p>Press ""L""</p></div>
            </center>
            <p style=""text-align:center"">Which clip sounds more like someone who was born in Boston?</p>","l","","","","","","","","14","M3_01","F5_02","M3","F5","male","female","to further my education.","My father also, you know,","short","3","0","",""
"","","","","","audio-keyboard-response","181","524506","0.0-181.0","","","","","","","","","","","","null","../audio/M5_01.WAV","null","M5_01","M5","male","1","1.863625","3.755","half an hour, probably fourty five minutes away.","","","","","","","","","","","","","",""
"","","","","","audio-keyboard-response","182","525507","0.0-182.0","","","","","","","","","","","","null","../audio/M1_02.WAV","s","M1_02","M1","male","2","0.999906","2.000","parallel ways.","","","","","","","","","","","","","",""
"","","","","","html-keyboard-response","183","527510","0.0-183.0","","","","","","","","","","","","748","
            <center>
                <div id=""clip1"" class=""visual"">Clip 1<p>Press ""S""</p></div>
                <div id=""clip2"" class=""visual"">Clip 2<p>Press ""L""</p></div>
            </center>
            <p style=""text-align:center"">Which clip sounds more like someone who was born in Boston?</p>","s","","","","","","","","15","M5_01","M1_02","M5","M1","male","male","half an hour, probably fourty five minutes away.","parallel ways.","short","3","0","",""
"","","","","","audio-keyboard-response","184","531744","0.0-184.0","","","","","","","","","","","","null","../audio/M5_02.WAV","null","M5_02","M5","male","1","2.229229","2.244","Because back in the seventies,","","","","","","","","","","","","","",""
"","","","","","audio-keyboard-response","185","532772","0.0-185.0","","","","","","","","","","","","null","../audio/M2_01.WAV","l","M2_01","M2","male","2","1.025729","3.900","being in the squallor.","","","","","","","","","","","","","",""
"","","","","","html-keyboard-response","186","534775","0.0-186.0","","","","","","","","","","","","510","
            <center>
                <div id=""clip1"" class=""visual"">Clip 1<p>Press ""S""</p></div>
                <div id=""clip2"" class=""visual"">Clip 2<p>Press ""L""</p></div>
            </center>
            <p style=""text-align:center"">Which clip sounds more like someone who was born in Boston?</p>","l","","","","","","","","16","M5_02","M2_01","M5","M2","male","male","Because back in the seventies,","being in the squallor.","short","3","0","",""
"","","","","","audio-keyboard-response","187","539318","0.0-187.0","","","","","","","","","","","","null","../audio/M4_02.WAV","null","M4_02","M4","male","1","2.538281","2.364","the most intimate group of friends,","","","","","","","","","","","","","",""
"","","","","","audio-keyboard-response","188","541157","0.0-188.0","","","","","","","","","","","","null","../audio/F4_01.WAV","l","F4_01","F4","female","2","1.835479","2.724","Probably right before I turned six.","","","","","","","","","","","","","",""
"","","","","","html-keyboard-response","189","543161","0.0-189.0","","","","","","","","","","","","360","
            <center>
                <div id=""clip1"" class=""visual"">Clip 1<p>Press ""S""</p></div>
                <div id=""clip2"" class=""visual"">Clip 2<p>Press ""L""</p></div>
            </center>
            <p style=""text-align:center"">Which clip sounds more like someone who was born in Boston?</p>","l","","","","","","","","17","M4_02","F4_01","M4","F4","male","female","the most intimate group of friends,","Probably right before I turned six.","short","3","0","",""
"","","","","","audio-keyboard-response","190","546875","0.0-190.0","","","","","","","","","","","","null","../audio/M3_02.WAV","null","M3_02","M3","male","1","1.709750","2.924","And then on Sunday morning","","","","","","","","","","","","","",""
"","","","","","audio-keyboard-response","191","549543","0.0-191.0","","","","","","","","","","","","null","../audio/M2_02.WAV","l","M2_02","M2","male","2","2.665333","3.001","But later on, when I traveled quite a bit,","","","","","","","","","","","","","",""
"","","","","","html-keyboard-response","192","551546","0.0-192.0","","","","","","","","","","","","377","
            <center>
                <div id=""clip1"" class=""visual"">Clip 1<p>Press ""S""</p></div>
                <div id=""clip2"" class=""visual"">Clip 2<p>Press ""L""</p></div>
            </center>
            <p style=""text-align:center"">Which clip sounds more like someone who was born in Boston?</p>","l","","","","","","","","18","M3_02","M2_02","M3","M2","male","male","And then on Sunday morning","But later on, when I traveled quite a bit,","short","3","0","",""
"","","","","","audio-keyboard-response","193","554387","0.0-193.0","","","","","","","","","","","","null","../audio/F5_01.WAV","null","F5_01","F5","female","1","0.835490","3.592","Oh my god.","","","","","","","","","","","","","",""
"","","","","","audio-keyboard-response","194","555274","0.0-194.0","","","","","","","","","","","","null","../audio/M4_01.WAV","s","M4_01","M4","male","2","0.883969","3.393","yeah last fall","","","","","","","","","","","","","",""
"","","","","","html-keyboard-response","195","557277","0.0-195.0","","","","","","","","","","","","690","
            <center>
                <div id=""clip1"" class=""visual"">Clip 1<p>Press ""S""</p></div>
                <div id=""clip2"" class=""visual"">Clip 2<p>Press ""L""</p></div>
            </center>
            <p style=""text-align:center"">Which clip sounds more like someone who was born in Boston?</p>","s","","","","","","","","19","F5_01","M4_01","F5","M4","female","male","Oh my god.","yeah last fall","short","3","0","",""
"","","","","","audio-keyboard-response","196","562010","0.0-196.0","","","","","","","","","","","","null","../audio/F1_01.WAV","null","F1_01","F1","female","1","2.729260","1.832","because of the limited space.","","","","","","","","","","","","","",""
"","","","","","audio-keyboard-response","197","563667","0.0-197.0","","","","","","","","","","","","null","../audio/F2_01.WAV","l","F2_01","F2","female","2","1.654760","3.021","and then upstairs in her apartment,","","","","","","","","","","","","","",""
"","","","","","html-keyboard-response","198","565671","0.0-198.0","","","","","","","","","","","","413","
            <center>
                <div id=""clip1"" class=""visual"">Clip 1<p>Press ""S""</p></div>
                <div id=""clip2"" class=""visual"">Clip 2<p>Press ""L""</p></div>
            </center>
            <p style=""text-align:center"">Which clip sounds more like someone who was born in Boston?</p>","l","","","","","","","","20","F1_01","F2_01","F1","F2","female","female","because of the limited space.","and then upstairs in her apartment,","short","3","0","",""
"","","","","","audio-keyboard-response","199","570852","0.0-199.0","","","","","","","","","","","","null","../audio/F1_04.WAV","null","F1_04","F1","female","1","3.175875","3.149","but majority of the time people offer to pick me up.","","","","","","","","","","","","","",""
"","","","","","audio-keyboard-response","200","573310","0.0-200.0","","","","","","","","","","","","null","../audio/F1_03.WAV","s","F1_03","F1","female","2","2.456333","2.442","I end up going to high school.","","","","","","","","","","","","","",""
"","","","","","html-keyboard-response","201","575314","0.0-201.0","","","","","","","","","","","","1721","
            <center>
                <div id=""clip1"" class=""visual"">Clip 1<p>Press ""S""</p></div>
                <div id=""clip2"" class=""visual"">Clip 2<p>Press ""L""</p></div>
            </center>
            <p style=""text-align:center"">Which clip sounds more like someone who was born in Boston?</p>","s","","","","","","","","1","F1_04","F1_03","F1","F1","female","female","but majority of the time people offer to pick me up.","I end up going to high school.","long","4","0","",""
"","","","","","audio-keyboard-response","202","579455","0.0-202.0","","","","","","","","","","","","null","../audio/M4_03.WAV","null","M4_03","M4","male","1","2.137188","1.872","they didn't really respond","","","","","","","","","","","","","",""
"","","","","","audio-keyboard-response","203","581243","0.0-203.0","","","","","","","","","","","","null","../audio/M4_04.WAV","l","M4_04","M4","male","2","1.785187","3.361","I'm still struggling to be honest.","","","","","","","","","","","","","",""
"","","","","","html-keyboard-response","204","583247","0.0-204.0","","","","","","","","","","","","1460","
            <center>
                <div id=""clip1"" class=""visual"">Clip 1<p>Press ""S""</p></div>
                <div id=""clip2"" class=""visual"">Clip 2<p>Press ""L""</p></div>
            </center>
            <p style=""text-align:center"">Which clip sounds more like someone who was born in Boston?</p>","l","","","","","","","","2","M4_03","M4_04","M4","M4","male","male","they didn't really respond","I'm still struggling to be honest.","long","4","0","",""
"","","","","","audio-keyboard-response","205","588212","0.0-205.0","","","","","","","","","","","","null","../audio/F3_03.WAV","null","F3_03","F3","female","1","2.959219","2.028","So initially my father said no.","","","","","","","","","","","","","",""
"","","","","","audio-keyboard-response","206","591618","0.0-206.0","","","","","","","","","","","","null","../audio/F5_04.WAV","l","F5_04","F5","female","2","3.404396","2.056","After half a year, I start full-time.","","","","","","","","","","","","","",""
"","","","","","html-keyboard-response","207","593621","0.0-207.0","","","","","","","","","","","","461","
            <center>
                <div id=""clip1"" class=""visual"">Clip 1<p>Press ""S""</p></div>
                <div id=""clip2"" class=""visual"">Clip 2<p>Press ""L""</p></div>
            </center>
            <p style=""text-align:center"">Which clip sounds more like someone who was born in Boston?</p>","l","","","","","","","","3","F3_03","F5_04","F3","F5","female","female","So initially my father said no.","After half a year, I start full-time.","long","4","0","",""
"","","","","","audio-keyboard-response","208","600001","0.0-208.0","","","","","","","","","","","","null","../audio/M5_03.WAV","null","M5_03","M5","male","1","4.375990","1.829","So we start transporting, moving kids outside of the neighborhood.","","","","","","","","","","","","","",""
"","","","","","audio-keyboard-response","209","601564","0.0-209.0","","","","","","","","","","","","null","../audio/M5_04.WAV","l","M5_04","M5","male","2","1.560854","3.204","and the summer was cold.","","","","","","","","","","","","","",""
"","","","","","html-keyboard-response","210","603568","0.0-210.0","","","","","","","","","","","","636","
            <center>
                <div id=""clip1"" class=""visual"">Clip 1<p>Press ""S""</p></div>
                <div id=""clip2"" class=""visual"">Clip 2<p>Press ""L""</p></div>
            </center>
            <p style=""text-align:center"">Which clip sounds more like someone who was born in Boston?</p>","l","","","","","","","","4","M5_03","M5_04","M5","M5","male","male","So we start transporting, moving kids outside of the neighborhood.","and the summer was cold.","long","4","0","",""
"","","","","","audio-keyboard-response","211","608735","0.0-211.0","","","","","","","","","","","","null","../audio/F5_03.WAV","null","F5_03","F5","female","1","3.162094","2.530","It was a totally new experience to me.","","","","","","","","","","","","","",""
"","","","","","audio-keyboard-response","212","610815","0.0-212.0","","","","","","","","","","","","null","../audio/F2_03.WAV","l","F2_03","F2","female","2","2.078781","4.811","But it was illegal at that time, and I didn't know that.","","","","","","","","","","","","","",""
"","","","","","html-keyboard-response","213","612818","0.0-213.0","","","","","","","","","","","","643","
            <center>
                <div id=""clip1"" class=""visual"">Clip 1<p>Press ""S""</p></div>
                <div id=""clip2"" class=""visual"">Clip 2<p>Press ""L""</p></div>
            </center>
            <p style=""text-align:center"">Which clip sounds more like someone who was born in Boston?</p>","l","","","","","","","","5","F5_03","F2_03","F5","F2","female","female","It was a totally new experience to me.","But it was illegal at that time, and I didn't know that.","long","4","0","",""
"","","","","","audio-keyboard-response","214","617002","0.0-214.0","","","","","","","","","","","","null","../audio/M2_04.WAV","null","M2_04","M2","male","1","2.180729","2.751","People just focus on making money.","","","","","","","","","","","","","",""
"","","","","","audio-keyboard-response","215","619567","0.0-215.0","","","","","","","","","","","","null","../audio/M3_04.WAV","l","M3_04","M3","male","2","2.564635","3.508","You had to learn about what they're talking about.","","","","","","","","","","","","","",""
"","","","","","html-keyboard-response","216","621570","0.0-216.0","","","","","","","","","","","","527","
            <center>
                <div id=""clip1"" class=""visual"">Clip 1<p>Press ""S""</p></div>
                <div id=""clip2"" class=""visual"">Clip 2<p>Press ""L""</p></div>
            </center>
            <p style=""text-align:center"">Which clip sounds more like someone who was born in Boston?</p>","l","","","","","","","","6","M2_04","M3_04","M2","M3","male","male","People just focus on making money.","You had to learn about what they're talking about.","long","4","0","",""
"","","","","","audio-keyboard-response","217","625081","0.0-217.0","","","","","","","","","","","","null","../audio/M1_04.WAV","null","M1_04","M1","male","1","1.508312","4.640","It's a really nice place to live.","","","","","","","","","","","","","",""
"","","","","","audio-keyboard-response","218","629071","0.0-218.0","","","","","","","","","","","","null","../audio/F4_04.WAV","l","F4_04","F4","female","2","3.988719","3.509","So when I got in, I knew that I can take the train, it was easy to commute.","","","","","","","","","","","","","",""
"","","","","","html-keyboard-response","219","631074","0.0-219.0","","","","","","","","","","","","1069","
            <center>
                <div id=""clip1"" class=""visual"">Clip 1<p>Press ""S""</p></div>
                <div id=""clip2"" class=""visual"">Clip 2<p>Press ""L""</p></div>
            </center>
            <p style=""text-align:center"">Which clip sounds more like someone who was born in Boston?</p>","l","","","","","","","","7","M1_04","F4_04","M1","F4","male","female","It's a really nice place to live.","So when I got in, I knew that I can take the train, it was easy to commute.","long","4","0","",""
"","","","","","audio-keyboard-response","220","634559","0.0-220.0","","","","","","","","","","","","null","../audio/M1_03.WAV","null","M1_03","M1","male","1","1.480896","2.701","you kind of get spoiled.","","","","","","","","","","","","","",""
"","","","","","audio-keyboard-response","221","638232","0.0-221.0","","","","","","","","","","","","null","../audio/F4_03.WAV","l","F4_03","F4","female","2","3.670938","2.724","Yeah, it was an apartment building. It was like a one-bedroom","","","","","","","","","","","","","",""
"","","","","","html-keyboard-response","222","640236","0.0-222.0","","","","","","","","","","","","487","
            <center>
                <div id=""clip1"" class=""visual"">Clip 1<p>Press ""S""</p></div>
                <div id=""clip2"" class=""visual"">Clip 2<p>Press ""L""</p></div>
            </center>
            <p style=""text-align:center"">Which clip sounds more like someone who was born in Boston?</p>","l","","","","","","","","8","M1_03","F4_03","M1","F4","male","female","you kind of get spoiled.","Yeah, it was an apartment building. It was like a one-bedroom","long","4","0","",""
"","","","","","audio-keyboard-response","223","645144","0.0-223.0","","","","","","","","","","","","null","../audio/F2_04.WAV","null","F2_04","F2","female","1","2.902938","4.134","They buy a whole pig and then they eat their way through it.","","","","","","","","","","","","","",""
"","","","","","audio-keyboard-response","224","648173","0.0-224.0","","","","","","","","","","","","null","../audio/M2_03.WAV","l","M2_03","M2","male","2","3.026990","2.643","The airport is basically a one-story building.","","","","","","","","","","","","","",""
"","","","","","html-keyboard-response","225","650177","0.0-225.0","","","","","","","","","","","","511","
            <center>
                <div id=""clip1"" class=""visual"">Clip 1<p>Press ""S""</p></div>
                <div id=""clip2"" class=""visual"">Clip 2<p>Press ""L""</p></div>
            </center>
            <p style=""text-align:center"">Which clip sounds more like someone who was born in Boston?</p>","l","","","","","","","","9","F2_04","M2_03","F2","M2","female","male","They buy a whole pig and then they eat their way through it.","The airport is basically a one-story building.","long","4","0","",""
"","","","","","audio-keyboard-response","226","656297","0.0-226.0","","","","","","","","","","","","null","../audio/F3_04.WAV","null","F3_04","F3","female","1","4.115500","2.430","they would also know just because it's easier to identify families.","","","","","","","","","","","","","",""
"","","","","","audio-keyboard-response","227","659678","0.0-227.0","","","","","","","","","","","","null","../audio/M3_03.WAV","s","M3_03","M3","male","2","3.378094","3.553","Probably you heard on the radio or on the news, they are downsizing.","","","","","","","","","","","","","",""
"","","","","","html-keyboard-response","228","661682","0.0-228.0","","","","","","","","","","","","885","
            <center>
                <div id=""clip1"" class=""visual"">Clip 1<p>Press ""S""</p></div>
                <div id=""clip2"" class=""visual"">Clip 2<p>Press ""L""</p></div>
            </center>
            <p style=""text-align:center"">Which clip sounds more like someone who was born in Boston?</p>","s","","","","","","","","10","F3_04","M3_03","F3","M3","female","male","they would also know just because it's easier to identify families.","Probably you heard on the radio or on the news, they are downsizing.","long","4","0","",""
"","","","","","audio-keyboard-response","229","665167","0.0-229.0","","","","","","","","","","","","null","../audio/M1_03.WAV","null","M1_03","M1","male","1","1.480896","2.701","you kind of get spoiled.","","","","","","","","","","","","","",""
"","","","","","audio-keyboard-response","230","666956","0.0-230.0","","","","","","","","","","","","null","../audio/M4_04.WAV","l","M4_04","M4","male","2","1.785187","3.361","I'm still struggling to be honest.","","","","","","","","","","","","","",""
"","","","","","html-keyboard-response","231","668959","0.0-231.0","","","","","","","","","","","","887","
            <center>
                <div id=""clip1"" class=""visual"">Clip 1<p>Press ""S""</p></div>
                <div id=""clip2"" class=""visual"">Clip 2<p>Press ""L""</p></div>
            </center>
            <p style=""text-align:center"">Which clip sounds more like someone who was born in Boston?</p>","l","","","","","","","","11","M1_03","M4_04","M1","M4","male","male","you kind of get spoiled.","I'm still struggling to be honest.","long","4","0","",""
"","","","","","audio-keyboard-response","232","672523","0.0-232.0","","","","","","","","","","","","null","../audio/M5_04.WAV","null","M5_04","M5","male","1","1.560854","3.204","and the summer was cold.","","","","","","","","","","","","","",""
"","","","","","audio-keyboard-response","233","674034","0.0-233.0","","","","","","","","","","","","null","../audio/M1_04.WAV","s","M1_04","M1","male","2","1.508312","4.640","It's a really nice place to live.","","","","","","","","","","","","","",""
"","","","","","html-keyboard-response","234","676037","0.0-234.0","","","","","","","","","","","","829","
            <center>
                <div id=""clip1"" class=""visual"">Clip 1<p>Press ""S""</p></div>
                <div id=""clip2"" class=""visual"">Clip 2<p>Press ""L""</p></div>
            </center>
            <p style=""text-align:center"">Which clip sounds more like someone who was born in Boston?</p>","s","","","","","","","","12","M5_04","M1_04","M5","M1","male","male","and the summer was cold.","It's a really nice place to live.","long","4","0","",""
"","","","","","audio-keyboard-response","235","682156","0.0-235.0","","","","","","","","","","","","null","../audio/F3_04.WAV","null","F3_04","F3","female","1","4.115500","2.430","they would also know just because it's easier to identify families.","","","","","","","","","","","","","",""
"","","","","","audio-keyboard-response","236","685564","0.0-236.0","","","","","","","","","","","","null","../audio/F5_04.WAV","s","F5_04","F5","female","2","3.404396","2.056","After half a year, I start full-time.","","","","","","","","","","","","","",""
"","","","","","html-keyboard-response","237","687567","0.0-237.0","","","","","","","","","","","","531","
            <center>
                <div id=""clip1"" class=""visual"">Clip 1<p>Press ""S""</p></div>
                <div id=""clip2"" class=""visual"">Clip 2<p>Press ""L""</p></div>
            </center>
            <p style=""text-align:center"">Which clip sounds more like someone who was born in Boston?</p>","s","","","","","","","","13","F3_04","F5_04","F3","F5","female","female","they would also know just because it's easier to identify families.","After half a year, I start full-time.","long","4","0","",""
"","","","","","audio-keyboard-response","238","692951","0.0-238.0","","","","","","","","","","","","null","../audio/M3_03.WAV","null","M3_03","M3","male","1","3.378094","3.553","Probably you heard on the radio or on the news, they are downsizing.","","","","","","","","","","","","","",""
"","","","","","audio-keyboard-response","239","695857","0.0-239.0","","","","","","","","","","","","null","../audio/F2_04.WAV","l","F2_04","F2","female","2","2.902938","4.134","They buy a whole pig and then they eat their way through it.","","","","","","","","","","","","","",""
"","","","","","html-keyboard-response","240","697860","0.0-240.0","","","","","","","","","","","","734","
            <center>
                <div id=""clip1"" class=""visual"">Clip 1<p>Press ""S""</p></div>
                <div id=""clip2"" class=""visual"">Clip 2<p>Press ""L""</p></div>
            </center>
            <p style=""text-align:center"">Which clip sounds more like someone who was born in Boston?</p>","l","","","","","","","","14","M3_03","F2_04","M3","F2","male","female","Probably you heard on the radio or on the news, they are downsizing.","They buy a whole pig and then they eat their way through it.","long","4","0","",""
"","","","","","audio-keyboard-response","241","701943","0.0-241.0","","","","","","","","","","","","null","../audio/F2_03.WAV","null","F2_03","F2","female","1","2.078781","4.811","But it was illegal at that time, and I didn't know that.","","","","","","","","","","","","","",""
"","","","","","audio-keyboard-response","242","704083","0.0-242.0","","","","","","","","","","","","null","../audio/M4_03.WAV","s","M4_03","M4","male","2","2.137188","1.872","they didn't really respond","","","","","","","","","","","","","",""
"","","","","","html-keyboard-response","243","706087","0.0-243.0","","","","","","","","","","","","615","
            <center>
                <div id=""clip1"" class=""visual"">Clip 1<p>Press ""S""</p></div>
                <div id=""clip2"" class=""visual"">Clip 2<p>Press ""L""</p></div>
            </center>
            <p style=""text-align:center"">Which clip sounds more like someone who was born in Boston?</p>","s","","","","","","","","15","F2_03","M4_03","F2","M4","female","male","But it was illegal at that time, and I didn't know that.","they didn't really respond","long","4","0","",""
"","","","","","audio-keyboard-response","244","712468","0.0-244.0","","","","","","","","","","","","null","../audio/M5_03.WAV","null","M5_03","M5","male","1","4.375990","1.829","So we start transporting, moving kids outside of the neighborhood.","","","","","","","","","","","","","",""
"","","","","","audio-keyboard-response","245","716459","0.0-245.0","","","","","","","","","","","","null","../audio/F4_04.WAV","s","F4_04","F4","female","2","3.988719","3.509","So when I got in, I knew that I can take the train, it was easy to commute.","","","","","","","","","","","","","",""
"","","","","","html-keyboard-response","246","718463","0.0-246.0","","","","","","","","","","","","702","
            <center>
                <div id=""clip1"" class=""visual"">Clip 1<p>Press ""S""</p></div>
                <div id=""clip2"" class=""visual"">Clip 2<p>Press ""L""</p></div>
            </center>
            <p style=""text-align:center"">Which clip sounds more like someone who was born in Boston?</p>","s","","","","","","","","16","M5_03","F4_04","M5","F4","male","female","So we start transporting, moving kids outside of the neighborhood.","So when I got in, I knew that I can take the train, it was easy to commute.","long","4","0","",""
"","","","","","audio-keyboard-response","247","723629","0.0-247.0","","","","","","","","","","","","null","../audio/F5_03.WAV","null","F5_03","F5","female","1","3.162094","2.530","It was a totally new experience to me.","","","","","","","","","","","","","",""
"","","","","","audio-keyboard-response","248","726806","0.0-248.0","","","","","","","","","","","","null","../audio/F1_04.WAV","l","F1_04","F1","female","2","3.175875","3.149","but majority of the time people offer to pick me up.","","","","","","","","","","","","","",""
"","","","","","html-keyboard-response","249","728809","0.0-249.0","","","","","","","","","","","","546","
            <center>
                <div id=""clip1"" class=""visual"">Clip 1<p>Press ""S""</p></div>
                <div id=""clip2"" class=""visual"">Clip 2<p>Press ""L""</p></div>
            </center>
            <p style=""text-align:center"">Which clip sounds more like someone who was born in Boston?</p>","l","","","","","","","","17","F5_03","F1_04","F5","F1","female","female","It was a totally new experience to me.","but majority of the time people offer to pick me up.","long","4","0","",""
"","","","","","audio-keyboard-response","250","733379","0.0-250.0","","","","","","","","","","","","null","../audio/M3_04.WAV","null","M3_04","M3","male","1","2.564635","3.508","You had to learn about what they're talking about.","","","","","","","","","","","","","",""
"","","","","","audio-keyboard-response","251","736409","0.0-251.0","","","","","","","","","","","","null","../audio/M2_03.WAV","l","M2_03","M2","male","2","3.026990","2.643","The airport is basically a one-story building.","","","","","","","","","","","","","",""
"","","","","","html-keyboard-response","252","738412","0.0-252.0","","","","","","","","","","","","931","
            <center>
                <div id=""clip1"" class=""visual"">Clip 1<p>Press ""S""</p></div>
                <div id=""clip2"" class=""visual"">Clip 2<p>Press ""L""</p></div>
            </center>
            <p style=""text-align:center"">Which clip sounds more like someone who was born in Boston?</p>","l","","","","","","","","18","M3_04","M2_03","M3","M2","male","male","You had to learn about what they're talking about.","The airport is basically a one-story building.","long","4","0","",""
"","","","","","audio-keyboard-response","253","743377","0.0-253.0","","","","","","","","","","","","null","../audio/F3_03.WAV","null","F3_03","F3","female","1","2.959219","2.028","So initially my father said no.","","","","","","","","","","","","","",""
