"success","timeout","failed_images","failed_audio","failed_video","trial_type","trial_index","time_elapsed","internal_node_id","width","height","webaudio","browser","browser_version","mobile","os","fullscreen","vsync_rate","webcam","microphone","rt","stimulus","response","ID","talker","gender","order","duration","speech_rate","transcript","Order","clip1_id","clip2_id","clip1_speaker","clip2_speaker","clip1_gender","clip2_gender","clip1_transcript","clip2_transcript","block_type","block_number","counterbalance_id","accuracy","question_order"
"true","false","[]","[]","[]","preload","0","2244","0.0-0.0","","","","","","","","","","","","","","","","","","","","","","","","","","","","","","","","","","",""
"true","false","[]","[]","[]","preload","1","8987","0.0-1.0","","","","","","","","","","","","","","","","","","","","","","","","","","","","","","","","","","",""
"","","","","","browser-check","2","11262","0.0-2.0","1433","728","true","chrome","136.0.0","false","Mac OS","true","30","true","true","","","","","","","","","","","","","","","","","","","","","","","",""
"","","","","","html-button-response","3","21410","0.0-3.0","","","","","","","","","","","","9894","
        <div class=""text"" id=""instruction"" >
            <img src=""../images/stanford_logo.png"" alt=""stanford logo"" width=""180"" height=""80"">
            <p><b>Only complete this study if you are a Massachussets resident who is 18 years old or older.</b></p>
            <p>Please share this link with other people you know who live in the area, but <u>do not participate in this study more than once</u>.
            <BR>You will not be compensated more than once.</p> 
            <p>In this experiment, you will be listening to pairs of audio clips.</p>
            <p>Each pair of audio clips will be played once in consecutive order. Your task is to decide which one of the clips sounds like the speaker was born in Boston.</p>
            <p>Please ensure that you use earphones or headphones for the duration of this experiment.</p>
            <p>This experiment should be completed on a <b><u>desktop or laptop</u></b> using the <b><u>Google Chrome browser</u></b>.</p>
            <p>The experiment will take approximately 20 minutes. You will be compensated as advertised on Prolific for your time.</p>
        </div>
      ","0","","","","","","","","","","","","","","","","","","","","",""
"","","","","","html-button-response","4","23541","0.0-4.0","","","","","","","","","","","","1877","<p><strong>Thank you for your participation in this study. Please read the protocol below.</strong></p>
        <p>Protocol Director: Robert Hawkins</P
        <p>Protocol Title: Communication and social cognition in natural audiovisual contexts IRB# 77226</p>
        <p>DESCRIPTION: You are invited to participate in a research study about language and communication. 
        The purpose of the research is to understand how you interact and communicate with other people in naturalistic settings as a fluent English speaker. 
        This research will be conducted through the Prolific platform, including participants from the US, UK, and Canada. 
        If you decide to participate in this research, you will play a communication game in a group with one or more partners.</p>
        <p>TIME INVOLVEMENT: The task will last the amount of time advertised on Prolific. You are free to withdraw from the study at any time.</p>
        <p>RISKS AND BENEFITS: You may become frustrated if your partner gets distracted, or experience discomfort if other participants in your group 
        send text that is inappropriate for the task. We ask you to please be respectful of other participants you might be
        interacting with to mitigate these risks. You may also experience discomfort when being asked to discuss or challenge emotionally salient political beliefs. Study data will be
        stored securely, in compliance with Stanford University standards, minimizing the risk of confidentiality breach. This study advances our scientific understanding of how people
        communication and collaborate in naturalistic settings. This study may lead to further
        insights about what can go wrong in teamwork, suggest potential interventions to
        overcome these barriers, and help to develop assistive technologies that collaborate with
        human partners. We cannot and do not guarantee or promise that you will receive any benefits from this study.</p>
        <p>PAYMENTS: You will receive payment in the amount advertised on Prolific. If you do not complete this study, you will receive prorated payment based on the time that you have
        spent. Additionally, you may be eligible for bonus payments as described in the instructions.</p>
        <p> PARTICIPANTS RIGHTS: If you have read this form and have decided to participate in this project, please understand your participation is voluntary and you have the right
        to withdraw your consent or discontinue participation at any time without penalty or loss of benefits to which you are otherwise entitled. The alternative
        is not to participate. You have the right to refuse to answer particular questions. The results of this research study may be presented at scientific or professional meetings or
        published in scientific journals. Your individual privacy will be maintained in all published and written data resulting from the study. In accordance with scientific norms, the data
        from this study may be used or shared with other researchers for future research (after removing personally identifying information) without additional consent from you.</p>
        <p>CONTACT INFORMATION: Questions: If you have any questions, concerns or complaints about this research, its procedures, risks and benefits, contact the Protocol Director, Robert Hawkins (rdhawkins@stanford.edu, 217-549-6923).</p>
        <p>Independent Contact: If you are not satisfied with how this study is being conducted, or if you have any concerns, complaints, or general questions about the research or your rights as a participant, please contact the Stanford Institutional Review Board (IRB) to
        speak to someone independent of the research team at 650-723-2480 or toll free at 1-866-680-2906, or email at irbnonmed@stanford.edu. You can also write to the Stanford IRB, Stanford University, 1705 El Camino Real, Palo Alto, CA 94306. Please save or print a
        copy of this page for your records.</p>
        <p>If you agree to participate in this research, press the <strong>CONTINUE</strong> button to begin.</p> 
      ","0","","","","","","","","","","","","","","","","","","","","",""
"","","","","","cloze","5","37795","0.0-5.0","","","","","","","","","","","","","","[""friends""]","","","","","","","","","","","","","","","","","","","","",""
"","","","","","html-button-response","6","50624","0.0-6.0","","","","","","","","","","","","12575","
    <center>
      <div class=""instruction-box"">
        <p>You will now begin the practice trials.</p>
        <p>In each trial, two audio clips will play one after another. You will hear a variety of sentences and phrases spoken by different talkers.</p>
        <p>Each audio clip will only be played once and you will not be able to replay them.</p>
        <p><strong>Your task is to decide which clip sounds more like the speaker was born in Boston.</strong></p>
        <p><strong>These clips come from a range of different people so they might not all sound like your typical Bostonian, but just make your best guess as quickly as possible.</strong></p>        
  </center>
        ","0","","","","","","","","","","","","","","","","","","","","",""
"","","","","","html-button-response","7","76626","0.0-7.0","","","","","","","","","","","","25748","
    <center>   
      <div class=""instruction-box"">   
        <p>Please place your left index finger on the ""S"" key and your right index finger on the ""L"" key.</p>
        <p><img src=""../procedures/keyboard.png"" width=""500"" style=""margin-top:-10px""></p>
        <p>If the <strong>first clip</strong> sounds more like someone who was born in Boston, please <strong>press S</strong>.</p>
        <p>If the <strong>second clip</strong> sounds more like someone who was born in Boston, please <strong>press L</strong>.</p>
        <p><b>Respond as quickly as possible when both clips have finished playing.</b></p>
        <p>This is a timed task. If you do not respond in time, the next question will appear automatically.</p>
        <p><b>Please answer as quickly and accurately as possible.</b></p>
    </center>
        ","0","","","","","","","","","","","","","","","","","","","","",""
"","","","","","audio-keyboard-response","8","80884","0.0-8.0","","","","","","","","","","","","null","../practice/trial1_clip1.WAV","null","practice_trial1_clip1","practice_speaker","unknown","1","4","unknown","practice_transcript","","","","","","","","","","","","","",""
"","","","","","audio-keyboard-response","9","84887","0.0-9.0","","","","","","","","","","","","null","../practice/trial1_clip2.WAV","l","practice_trial1_clip2","practice_speaker","unknown","2","4","unknown","practice_transcript","","","","","","","","","","","","","",""
"","","","","","html-keyboard-response","10","86892","0.0-10.0","","","","","","","","","","","","774","
        <center>
            <div id=""clip1"" class=""visual"">Clip 1<p>Press ""S""</p></div>
            <div id=""clip2"" class=""visual"">Clip 2<p>Press ""L""</p></div>
        </center>
        <p style=""text-align:center"">Which clip sounds more like someone who was born in Boston?</p>","l","","","","","","","","1","practice_trial1_clip1","practice_trial1_clip2","","","","","","","","","","",""
"","","","","","audio-keyboard-response","11","92395","0.0-11.0","","","","","","","","","","","","null","../practice/trial2_clip1.WAV","null","practice_trial2_clip1","practice_speaker","unknown","1","4","unknown","practice_transcript","","","","","","","","","","","","","",""
"","","","","","audio-keyboard-response","12","96398","0.0-12.0","","","","","","","","","","","","null","../practice/trial2_clip2.WAV","l","practice_trial2_clip2","practice_speaker","unknown","2","4","unknown","practice_transcript","","","","","","","","","","","","","",""
"","","","","","html-keyboard-response","13","98402","0.0-13.0","","","","","","","","","","","","1679","
        <center>
            <div id=""clip1"" class=""visual"">Clip 1<p>Press ""S""</p></div>
            <div id=""clip2"" class=""visual"">Clip 2<p>Press ""L""</p></div>
        </center>
        <p style=""text-align:center"">Which clip sounds more like someone who was born in Boston?</p>","l","","","","","","","","2","practice_trial2_clip1","practice_trial2_clip2","","","","","","","","","","",""
"","","","","","audio-keyboard-response","14","103907","0.0-14.0","","","","","","","","","","","","null","../practice/trial3_clip1.WAV","null","practice_trial3_clip1","practice_speaker","unknown","1","4","unknown","practice_transcript","","","","","","","","","","","","","",""
"","","","","","audio-keyboard-response","15","107911","0.0-15.0","","","","","","","","","","","","null","../practice/trial3_clip2.WAV","s","practice_trial3_clip2","practice_speaker","unknown","2","4","unknown","practice_transcript","","","","","","","","","","","","","",""
"","","","","","html-keyboard-response","16","109914","0.0-16.0","","","","","","","","","","","","638","
        <center>
            <div id=""clip1"" class=""visual"">Clip 1<p>Press ""S""</p></div>
            <div id=""clip2"" class=""visual"">Clip 2<p>Press ""L""</p></div>
        </center>
        <p style=""text-align:center"">Which clip sounds more like someone who was born in Boston?</p>","s","","","","","","","","3","practice_trial3_clip1","practice_trial3_clip2","","","","","","","","","","",""
"","","","","","html-button-response","17","118276","0.0-17.0","","","","","","","","","","","","6858","
    <center>
      <div class=""instruction-box"">
        <p>You will now begin the experiment.</p>
        <p>In each trial, two audio clips will play one after another. You will hear a variety of sentences and phrases spoken by different talkers.</p>
        <p>Each audio clip will only be played once and you will not be able to replay them.</p>
        <p><strong>Your task is to decide which clip sounds more like someone who was born in Boston.</strong></p>
        <p><strong>These clips come from a range of different people so they might not all sound like your typical Bostonian, but please do your best to respond as quickly as possible.</strong></p>
    </center>
        ","0","","","","","","","","","","","","","","","","","","","","",""
"","","","","","html-button-response","18","121225","0.0-18.0","","","","","","","","","","","","2695","
    <center>
      <div class=""instruction-box"">
        <p>Please place your left index finger on the ""S"" key and your right index finger on the ""L"" key.</p>
        <p><img src=""../procedures/keyboard.png"" width=""500"" style=""margin-top:-10px""></p>
        <p>If the <strong>first clip</strong> sounds more like someone who was born in Boston, please <strong>press S</strong>.</p>
        <p>If the <strong>second clip</strong> sounds more like someone who was born in Boston, please <strong>press L</strong>.</p>
        <p><b>Respond as quickly as possible when both clips have finished playing.</b></p>
        <p>This is a timed task. If you do not respond in time, the next question will appear automatically.</p>
        <p><b>Please answer as quickly and accurately as possible.</b></p>
    </center>
        ","0","","","","","","","","","","","","","","","","","","","","",""
"","","","","","audio-keyboard-response","19","126355","0.0-19.0","","","","","","","","","","","","null","../audio/M5_03.WAV","null","M5_03","M5","male","1","4.375990","1.829","So we start transporting, moving kids outside of the neighborhood.","","","","","","","","","","","","","",""
"","","","","","audio-keyboard-response","20","128922","0.0-20.0","","","","","","","","","","","","null","../audio/M3_04.WAV","s","M3_04","M3","male","2","2.564635","3.508","You had to learn about what they're talking about.","","","","","","","","","","","","","",""
"","","","","","html-keyboard-response","21","130925","0.0-21.0","","","","","","","","","","","","742","
            <center>
                <div id=""clip1"" class=""visual"">Clip 1<p>Press ""S""</p></div>
                <div id=""clip2"" class=""visual"">Clip 2<p>Press ""L""</p></div>
            </center>
            <p style=""text-align:center"">Which clip sounds more like someone who was born in Boston?</p>","s","","","","","","","","1","M5_03","M3_04","M5","M3","male","male","So we start transporting, moving kids outside of the neighborhood.","You had to learn about what they're talking about.","long","1","1","",""
"","","","","","audio-keyboard-response","22","135386","0.0-22.0","","","","","","","","","","","","null","../audio/F1_03.WAV","null","F1_03","F1","female","1","2.456333","2.442","I end up going to high school.","","","","","","","","","","","","","",""
"","","","","","audio-keyboard-response","23","139059","0.0-23.0","","","","","","","","","","","","null","../audio/F4_03.WAV","l","F4_03","F4","female","2","3.670938","2.724","Yeah, it was an apartment building. It was like a one-bedroom","","","","","","","","","","","","","",""
"","","","","","html-keyboard-response","24","141062","0.0-24.0","","","","","","","","","","","","695","
            <center>
                <div id=""clip1"" class=""visual"">Clip 1<p>Press ""S""</p></div>
                <div id=""clip2"" class=""visual"">Clip 2<p>Press ""L""</p></div>
            </center>
            <p style=""text-align:center"">Which clip sounds more like someone who was born in Boston?</p>","l","","","","","","","","2","F1_03","F4_03","F1","F4","female","female","I end up going to high school.","Yeah, it was an apartment building. It was like a one-bedroom","long","1","1","",""
"","","","","","audio-keyboard-response","25","144547","0.0-25.0","","","","","","","","","","","","null","../audio/M1_03.WAV","null","M1_03","M1","male","1","1.480896","2.701","you kind of get spoiled.","","","","","","","","","","","","","",""
"","","","","","audio-keyboard-response","26","147509","0.0-26.0","","","","","","","","","","","","null","../audio/F3_03.WAV","l","F3_03","F3","female","2","2.959219","2.028","So initially my father said no.","","","","","","","","","","","","","",""
"","","","","","html-keyboard-response","27","149512","0.0-27.0","","","","","","","","","","","","430","
            <center>
                <div id=""clip1"" class=""visual"">Clip 1<p>Press ""S""</p></div>
                <div id=""clip2"" class=""visual"">Clip 2<p>Press ""L""</p></div>
            </center>
            <p style=""text-align:center"">Which clip sounds more like someone who was born in Boston?</p>","l","","","","","","","","3","M1_03","F3_03","M1","F3","male","female","you kind of get spoiled.","So initially my father said no.","long","1","1","",""
"","","","","","audio-keyboard-response","28","153697","0.0-28.0","","","","","","","","","","","","null","../audio/M2_04.WAV","null","M2_04","M2","male","1","2.180729","2.751","People just focus on making money.","","","","","","","","","","","","","",""
"","","","","","audio-keyboard-response","29","155207","0.0-29.0","","","","","","","","","","","","null","../audio/M1_04.WAV","l","M1_04","M1","male","2","1.508312","4.640","It's a really nice place to live.","","","","","","","","","","","","","",""
"","","","","","html-keyboard-response","30","157210","0.0-30.0","","","","","","","","","","","","579","
            <center>
                <div id=""clip1"" class=""visual"">Clip 1<p>Press ""S""</p></div>
                <div id=""clip2"" class=""visual"">Clip 2<p>Press ""L""</p></div>
            </center>
            <p style=""text-align:center"">Which clip sounds more like someone who was born in Boston?</p>","l","","","","","","","","4","M2_04","M1_04","M2","M1","male","male","People just focus on making money.","It's a really nice place to live.","long","1","1","",""
"","","","","","audio-keyboard-response","31","162116","0.0-31.0","","","","","","","","","","","","null","../audio/F2_04.WAV","null","F2_04","F2","female","1","2.902938","4.134","They buy a whole pig and then they eat their way through it.","","","","","","","","","","","","","",""
"","","","","","audio-keyboard-response","32","165294","0.0-32.0","","","","","","","","","","","","null","../audio/F1_04.WAV","s","F1_04","F1","female","2","3.175875","3.149","but majority of the time people offer to pick me up.","","","","","","","","","","","","","",""
"","","","","","html-keyboard-response","33","167297","0.0-33.0","","","","","","","","","","","","810","
            <center>
                <div id=""clip1"" class=""visual"">Clip 1<p>Press ""S""</p></div>
                <div id=""clip2"" class=""visual"">Clip 2<p>Press ""L""</p></div>
            </center>
            <p style=""text-align:center"">Which clip sounds more like someone who was born in Boston?</p>","s","","","","","","","","5","F2_04","F1_04","F2","F1","female","female","They buy a whole pig and then they eat their way through it.","but majority of the time people offer to pick me up.","long","1","1","",""
"","","","","","audio-keyboard-response","34","173416","0.0-34.0","","","","","","","","","","","","null","../audio/F3_04.WAV","null","F3_04","F3","female","1","4.115500","2.430","they would also know just because it's easier to identify families.","","","","","","","","","","","","","",""
"","","","","","audio-keyboard-response","35","176580","0.0-35.0","","","","","","","","","","","","null","../audio/F5_03.WAV","s","F5_03","F5","female","2","3.162094","2.530","It was a totally new experience to me.","","","","","","","","","","","","","",""
"","","","","","html-keyboard-response","36","178583","0.0-36.0","","","","","","","","","","","","1830","
            <center>
                <div id=""clip1"" class=""visual"">Clip 1<p>Press ""S""</p></div>
                <div id=""clip2"" class=""visual"">Clip 2<p>Press ""L""</p></div>
            </center>
            <p style=""text-align:center"">Which clip sounds more like someone who was born in Boston?</p>","s","","","","","","","","6","F3_04","F5_03","F3","F5","female","female","they would also know just because it's easier to identify families.","It was a totally new experience to me.","long","1","1","",""
"","","","","","audio-keyboard-response","37","184576","0.0-37.0","","","","","","","","","","","","null","../audio/F4_04.WAV","null","F4_04","F4","female","1","3.988719","3.509","So when I got in, I knew that I can take the train, it was easy to commute.","","","","","","","","","","","","","",""
"","","","","","audio-keyboard-response","38","187956","0.0-38.0","","","","","","","","","","","","null","../audio/M3_03.WAV","s","M3_03","M3","male","2","3.378094","3.553","Probably you heard on the radio or on the news, they are downsizing.","","","","","","","","","","","","","",""
"","","","","","html-keyboard-response","39","189959","0.0-39.0","","","","","","","","","","","","840","
            <center>
                <div id=""clip1"" class=""visual"">Clip 1<p>Press ""S""</p></div>
                <div id=""clip2"" class=""visual"">Clip 2<p>Press ""L""</p></div>
            </center>
            <p style=""text-align:center"">Which clip sounds more like someone who was born in Boston?</p>","s","","","","","","","","7","F4_04","M3_03","F4","M3","female","male","So when I got in, I knew that I can take the train, it was easy to commute.","Probably you heard on the radio or on the news, they are downsizing.","long","1","1","",""
"","","","","","audio-keyboard-response","40","195368","0.0-40.0","","","","","","","","","","","","null","../audio/F5_04.WAV","null","F5_04","F5","female","1","3.404396","2.056","After half a year, I start full-time.","","","","","","","","","","","","","",""
"","","","","","audio-keyboard-response","41","197156","0.0-41.0","","","","","","","","","","","","null","../audio/M4_04.WAV","s","M4_04","M4","male","2","1.785187","3.361","I'm still struggling to be honest.","","","","","","","","","","","","","",""
"","","","","","html-keyboard-response","42","199158","0.0-42.0","","","","","","","","","","","","814","
            <center>
                <div id=""clip1"" class=""visual"">Clip 1<p>Press ""S""</p></div>
                <div id=""clip2"" class=""visual"">Clip 2<p>Press ""L""</p></div>
            </center>
            <p style=""text-align:center"">Which clip sounds more like someone who was born in Boston?</p>","s","","","","","","","","8","F5_04","M4_04","F5","M4","female","male","After half a year, I start full-time.","I'm still struggling to be honest.","long","1","1","",""
"","","","","","audio-keyboard-response","43","204189","0.0-43.0","","","","","","","","","","","","null","../audio/M2_03.WAV","null","M2_03","M2","male","1","3.026990","2.643","The airport is basically a one-story building.","","","","","","","","","","","","","",""
"","","","","","audio-keyboard-response","44","206270","0.0-44.0","","","","","","","","","","","","null","../audio/F2_03.WAV","l","F2_03","F2","female","2","2.078781","4.811","But it was illegal at that time, and I didn't know that.","","","","","","","","","","","","","",""
"","","","","","html-keyboard-response","45","208273","0.0-45.0","","","","","","","","","","","","841","
            <center>
                <div id=""clip1"" class=""visual"">Clip 1<p>Press ""S""</p></div>
                <div id=""clip2"" class=""visual"">Clip 2<p>Press ""L""</p></div>
            </center>
            <p style=""text-align:center"">Which clip sounds more like someone who was born in Boston?</p>","l","","","","","","","","9","M2_03","F2_03","M2","F2","male","female","The airport is basically a one-story building.","But it was illegal at that time, and I didn't know that.","long","1","1","",""
"","","","","","audio-keyboard-response","46","212414","0.0-46.0","","","","","","","","","","","","null","../audio/M4_03.WAV","null","M4_03","M4","male","1","2.137188","1.872","they didn't really respond","","","","","","","","","","","","","",""
"","","","","","audio-keyboard-response","47","213977","0.0-47.0","","","","","","","","","","","","null","../audio/M5_04.WAV","l","M5_04","M5","male","2","1.560854","3.204","and the summer was cold.","","","","","","","","","","","","","",""
"","","","","","html-keyboard-response","48","215980","0.0-48.0","","","","","","","","","","","","829","
            <center>
                <div id=""clip1"" class=""visual"">Clip 1<p>Press ""S""</p></div>
                <div id=""clip2"" class=""visual"">Clip 2<p>Press ""L""</p></div>
            </center>
            <p style=""text-align:center"">Which clip sounds more like someone who was born in Boston?</p>","l","","","","","","","","10","M4_03","M5_04","M4","M5","male","male","they didn't really respond","and the summer was cold.","long","1","1","",""
"","","","","","audio-keyboard-response","49","220442","0.0-49.0","","","","","","","","","","","","null","../audio/F1_03.WAV","null","F1_03","F1","female","1","2.456333","2.442","I end up going to high school.","","","","","","","","","","","","","",""
"","","","","","audio-keyboard-response","50","222229","0.0-50.0","","","","","","","","","","","","null","../audio/M4_04.WAV","s","M4_04","M4","male","2","1.785187","3.361","I'm still struggling to be honest.","","","","","","","","","","","","","",""
"","","","","","html-keyboard-response","51","224232","0.0-51.0","","","","","","","","","","","","718","
            <center>
                <div id=""clip1"" class=""visual"">Clip 1<p>Press ""S""</p></div>
                <div id=""clip2"" class=""visual"">Clip 2<p>Press ""L""</p></div>
            </center>
            <p style=""text-align:center"">Which clip sounds more like someone who was born in Boston?</p>","s","","","","","","","","11","F1_03","M4_04","F1","M4","female","male","I end up going to high school.","I'm still struggling to be honest.","long","1","1","",""
"","","","","","audio-keyboard-response","52","229263","0.0-52.0","","","","","","","","","","","","null","../audio/M2_03.WAV","null","M2_03","M2","male","1","3.026990","2.643","The airport is basically a one-story building.","","","","","","","","","","","","","",""
"","","","","","audio-keyboard-response","53","233252","0.0-53.0","","","","","","","","","","","","null","../audio/F4_04.WAV","l","F4_04","F4","female","2","3.988719","3.509","So when I got in, I knew that I can take the train, it was easy to commute.","","","","","","","","","","","","","",""
"","","","","","html-keyboard-response","54","235256","0.0-54.0","","","","","","","","","","","","452","
            <center>
                <div id=""clip1"" class=""visual"">Clip 1<p>Press ""S""</p></div>
                <div id=""clip2"" class=""visual"">Clip 2<p>Press ""L""</p></div>
            </center>
            <p style=""text-align:center"">Which clip sounds more like someone who was born in Boston?</p>","l","","","","","","","","12","M2_03","F4_04","M2","F4","male","female","The airport is basically a one-story building.","So when I got in, I knew that I can take the train, it was easy to commute.","long","1","1","",""
"","","","","","audio-keyboard-response","55","240664","0.0-55.0","","","","","","","","","","","","null","../audio/F5_04.WAV","null","F5_04","F5","female","1","3.404396","2.056","After half a year, I start full-time.","","","","","","","","","","","","","",""
"","","","","","audio-keyboard-response","56","245043","0.0-56.0","","","","","","","","","","","","null","../audio/M5_03.WAV","l","M5_03","M5","male","2","4.375990","1.829","So we start transporting, moving kids outside of the neighborhood.","","","","","","","","","","","","","",""
"","","","","","html-keyboard-response","57","247046","0.0-57.0","","","","","","","","","","","","481","
            <center>
                <div id=""clip1"" class=""visual"">Clip 1<p>Press ""S""</p></div>
                <div id=""clip2"" class=""visual"">Clip 2<p>Press ""L""</p></div>
            </center>
            <p style=""text-align:center"">Which clip sounds more like someone who was born in Boston?</p>","l","","","","","","","","13","F5_04","M5_03","F5","M5","female","male","After half a year, I start full-time.","So we start transporting, moving kids outside of the neighborhood.","long","1","1","",""
"","","","","","audio-keyboard-response","58","250557","0.0-58.0","","","","","","","","","","","","null","../audio/M1_04.WAV","null","M1_04","M1","male","1","1.508312","4.640","It's a really nice place to live.","","","","","","","","","","","","","",""
"","","","","","audio-keyboard-response","59","253721","0.0-59.0","","","","","","","","","","","","null","../audio/F5_03.WAV","s","F5_03","F5","female","2","3.162094","2.530","It was a totally new experience to me.","","","","","","","","","","","","","",""
"","","","","","html-keyboard-response","60","255724","0.0-60.0","","","","","","","","","","","","841","
            <center>
                <div id=""clip1"" class=""visual"">Clip 1<p>Press ""S""</p></div>
                <div id=""clip2"" class=""visual"">Clip 2<p>Press ""L""</p></div>
            </center>
            <p style=""text-align:center"">Which clip sounds more like someone who was born in Boston?</p>","s","","","","","","","","14","M1_04","F5_03","M1","F5","male","female","It's a really nice place to live.","It was a totally new experience to me.","long","1","1","",""
"","","","","","audio-keyboard-response","61","260904","0.0-61.0","","","","","","","","","","","","null","../audio/F1_04.WAV","null","F1_04","F1","female","1","3.175875","3.149","but majority of the time people offer to pick me up.","","","","","","","","","","","","","",""
"","","","","","audio-keyboard-response","62","263086","0.0-62.0","","","","","","","","","","","","null","../audio/M2_04.WAV","s","M2_04","M2","male","2","2.180729","2.751","People just focus on making money.","","","","","","","","","","","","","",""
"","","","","","html-keyboard-response","63","265089","0.0-63.0","","","","","","","","","","","","858","
            <center>
                <div id=""clip1"" class=""visual"">Clip 1<p>Press ""S""</p></div>
                <div id=""clip2"" class=""visual"">Clip 2<p>Press ""L""</p></div>
            </center>
            <p style=""text-align:center"">Which clip sounds more like someone who was born in Boston?</p>","s","","","","","","","","15","F1_04","M2_04","F1","M2","female","male","but majority of the time people offer to pick me up.","People just focus on making money.","long","1","1","",""
"","","","","","audio-keyboard-response","64","270764","0.0-64.0","","","","","","","","","","","","null","../audio/F4_03.WAV","null","F4_03","F4","female","1","3.670938","2.724","Yeah, it was an apartment building. It was like a one-bedroom","","","","","","","","","","","","","",""
"","","","","","audio-keyboard-response","65","274882","0.0-65.0","","","","","","","","","","","","null","../audio/F3_04.WAV","l","F3_04","F3","female","2","4.115500","2.430","they would also know just because it's easier to identify families.","","","","","","","","","","","","","",""
"","","","","","html-keyboard-response","66","276885","0.0-66.0","","","","","","","","","","","","962","
            <center>
                <div id=""clip1"" class=""visual"">Clip 1<p>Press ""S""</p></div>
                <div id=""clip2"" class=""visual"">Clip 2<p>Press ""L""</p></div>
            </center>
            <p style=""text-align:center"">Which clip sounds more like someone who was born in Boston?</p>","l","","","","","","","","16","F4_03","F3_04","F4","F3","female","female","Yeah, it was an apartment building. It was like a one-bedroom","they would also know just because it's easier to identify families.","long","1","1","",""
"","","","","","audio-keyboard-response","67","280450","0.0-67.0","","","","","","","","","","","","null","../audio/M5_04.WAV","null","M5_04","M5","male","1","1.560854","3.204","and the summer was cold.","","","","","","","","","","","","","",""
"","","","","","audio-keyboard-response","68","283355","0.0-68.0","","","","","","","","","","","","null","../audio/F2_04.WAV","l","F2_04","F2","female","2","2.902938","4.134","They buy a whole pig and then they eat their way through it.","","","","","","","","","","","","","",""
"","","","","","html-keyboard-response","69","285358","0.0-69.0","","","","","","","","","","","","479","
            <center>
                <div id=""clip1"" class=""visual"">Clip 1<p>Press ""S""</p></div>
                <div id=""clip2"" class=""visual"">Clip 2<p>Press ""L""</p></div>
            </center>
            <p style=""text-align:center"">Which clip sounds more like someone who was born in Boston?</p>","l","","","","","","","","17","M5_04","F2_04","M5","F2","male","female","and the summer was cold.","They buy a whole pig and then they eat their way through it.","long","1","1","",""
"","","","","","audio-keyboard-response","70","289440","0.0-70.0","","","","","","","","","","","","null","../audio/F2_03.WAV","null","F2_03","F2","female","1","2.078781","4.811","But it was illegal at that time, and I didn't know that.","","","","","","","","","","","","","",""
"","","","","","audio-keyboard-response","71","290922","0.0-71.0","","","","","","","","","","","","null","../audio/M1_03.WAV","s","M1_03","M1","male","2","1.480896","2.701","you kind of get spoiled.","","","","","","","","","","","","","",""
"","","","","","html-keyboard-response","72","292925","0.0-72.0","","","","","","","","","","","","1103","
            <center>
                <div id=""clip1"" class=""visual"">Clip 1<p>Press ""S""</p></div>
                <div id=""clip2"" class=""visual"">Clip 2<p>Press ""L""</p></div>
            </center>
            <p style=""text-align:center"">Which clip sounds more like someone who was born in Boston?</p>","s","","","","","","","","18","F2_03","M1_03","F2","M1","female","male","But it was illegal at that time, and I didn't know that.","you kind of get spoiled.","long","1","1","",""
"","","","","","audio-keyboard-response","73","298307","0.0-73.0","","","","","","","","","","","","null","../audio/M3_03.WAV","null","M3_03","M3","male","1","3.378094","3.553","Probably you heard on the radio or on the news, they are downsizing.","","","","","","","","","","","","","",""
"","","","","","audio-keyboard-response","74","301269","0.0-74.0","","","","","","","","","","","","null","../audio/F3_03.WAV","l","F3_03","F3","female","2","2.959219","2.028","So initially my father said no.","","","","","","","","","","","","","",""
"","","","","","html-keyboard-response","75","303272","0.0-75.0","","","","","","","","","","","","471","
            <center>
                <div id=""clip1"" class=""visual"">Clip 1<p>Press ""S""</p></div>
                <div id=""clip2"" class=""visual"">Clip 2<p>Press ""L""</p></div>
            </center>
            <p style=""text-align:center"">Which clip sounds more like someone who was born in Boston?</p>","l","","","","","","","","19","M3_03","F3_03","M3","F3","male","female","Probably you heard on the radio or on the news, they are downsizing.","So initially my father said no.","long","1","1","",""
"","","","","","audio-keyboard-response","76","307413","0.0-76.0","","","","","","","","","","","","null","../audio/M4_03.WAV","null","M4_03","M4","male","1","2.137188","1.872","they didn't really respond","","","","","","","","","","","","","",""
"","","","","","audio-keyboard-response","77","309980","0.0-77.0","","","","","","","","","","","","null","../audio/M3_04.WAV","l","M3_04","M3","male","2","2.564635","3.508","You had to learn about what they're talking about.","","","","","","","","","","","","","",""
"","","","","","html-keyboard-response","78","311982","0.0-78.0","","","","","","","","","","","","937","
            <center>
                <div id=""clip1"" class=""visual"">Clip 1<p>Press ""S""</p></div>
                <div id=""clip2"" class=""visual"">Clip 2<p>Press ""L""</p></div>
            </center>
            <p style=""text-align:center"">Which clip sounds more like someone who was born in Boston?</p>","l","","","","","","","","20","M4_03","M3_04","M4","M3","male","male","they didn't really respond","You had to learn about what they're talking about.","long","1","1","",""
"","","","","","audio-keyboard-response","79","316889","0.0-79.0","","","","","","","","","","","","null","../audio/F2_04.WAV","null","F2_04","F2","female","1","2.902938","4.134","They buy a whole pig and then they eat their way through it.","","","","","","","","","","","","","",""
"","","","","","audio-keyboard-response","80","318371","0.0-80.0","","","","","","","","","","","","null","../audio/M1_03.WAV","s","M1_03","M1","male","2","1.480896","2.701","you kind of get spoiled.","","","","","","","","","","","","","",""
"","","","","","html-keyboard-response","81","320373","0.0-81.0","","","","","","","","","","","","551","
            <center>
                <div id=""clip1"" class=""visual"">Clip 1<p>Press ""S""</p></div>
                <div id=""clip2"" class=""visual"">Clip 2<p>Press ""L""</p></div>
            </center>
            <p style=""text-align:center"">Which clip sounds more like someone who was born in Boston?</p>","s","","","","","","","","1","F2_04","M1_03","F2","M1","female","male","They buy a whole pig and then they eat their way through it.","you kind of get spoiled.","long","2","1","",""
"","","","","","audio-keyboard-response","82","324455","0.0-82.0","","","","","","","","","","","","null","../audio/F2_03.WAV","null","F2_03","F2","female","1","2.078781","4.811","But it was illegal at that time, and I didn't know that.","","","","","","","","","","","","","",""
"","","","","","audio-keyboard-response","83","328129","0.0-83.0","","","","","","","","","","","","null","../audio/F4_03.WAV","l","F4_03","F4","female","2","3.670938","2.724","Yeah, it was an apartment building. It was like a one-bedroom","","","","","","","","","","","","","",""
"","","","","","html-keyboard-response","84","330131","0.0-84.0","","","","","","","","","","","","1779","
            <center>
                <div id=""clip1"" class=""visual"">Clip 1<p>Press ""S""</p></div>
                <div id=""clip2"" class=""visual"">Clip 2<p>Press ""L""</p></div>
            </center>
            <p style=""text-align:center"">Which clip sounds more like someone who was born in Boston?</p>","l","","","","","","","","2","F2_03","F4_03","F2","F4","female","female","But it was illegal at that time, and I didn't know that.","Yeah, it was an apartment building. It was like a one-bedroom","long","2","1","",""
"","","","","","audio-keyboard-response","85","334316","0.0-85.0","","","","","","","","","","","","null","../audio/M2_04.WAV","null","M2_04","M2","male","1","2.180729","2.751","People just focus on making money.","","","","","","","","","","","","","",""
"","","","","","audio-keyboard-response","86","337723","0.0-86.0","","","","","","","","","","","","null","../audio/F5_04.WAV","l","F5_04","F5","female","2","3.404396","2.056","After half a year, I start full-time.","","","","","","","","","","","","","",""
"","","","","","html-keyboard-response","87","339724","0.0-87.0","","","","","","","","","","","","1920","
            <center>
                <div id=""clip1"" class=""visual"">Clip 1<p>Press ""S""</p></div>
                <div id=""clip2"" class=""visual"">Clip 2<p>Press ""L""</p></div>
            </center>
            <p style=""text-align:center"">Which clip sounds more like someone who was born in Boston?</p>","l","","","","","","","","3","M2_04","F5_04","M2","F5","male","female","People just focus on making money.","After half a year, I start full-time.","long","2","1","",""
"","","","","","audio-keyboard-response","88","344891","0.0-88.0","","","","","","","","","","","","null","../audio/F5_03.WAV","null","F5_03","F5","female","1","3.162094","2.530","It was a totally new experience to me.","","","","","","","","","","","","","",""
"","","","","","audio-keyboard-response","89","348882","0.0-89.0","","","","","","","","","","","","null","../audio/F4_04.WAV","l","F4_04","F4","female","2","3.988719","3.509","So when I got in, I knew that I can take the train, it was easy to commute.","","","","","","","","","","","","","",""
"","","","","","html-keyboard-response","90","350883","0.0-90.0","","","","","","","","","","","","1053","
            <center>
                <div id=""clip1"" class=""visual"">Clip 1<p>Press ""S""</p></div>
                <div id=""clip2"" class=""visual"">Clip 2<p>Press ""L""</p></div>
            </center>
            <p style=""text-align:center"">Which clip sounds more like someone who was born in Boston?</p>","l","","","","","","","","4","F5_03","F4_04","F5","F4","female","female","It was a totally new experience to me.","So when I got in, I knew that I can take the train, it was easy to commute.","long","2","1","",""
"","","","","","audio-keyboard-response","91","355913","0.0-91.0","","","","","","","","","","","","null","../audio/M2_03.WAV","null","M2_03","M2","male","1","3.026990","2.643","The airport is basically a one-story building.","","","","","","","","","","","","","",""
"","","","","","audio-keyboard-response","92","357424","0.0-92.0","","","","","","","","","","","","null","../audio/M1_04.WAV","l","M1_04","M1","male","2","1.508312","4.640","It's a really nice place to live.","","","","","","","","","","","","","",""
"","","","","","html-keyboard-response","93","359427","0.0-93.0","","","","","","","","","","","","762","
            <center>
                <div id=""clip1"" class=""visual"">Clip 1<p>Press ""S""</p></div>
                <div id=""clip2"" class=""visual"">Clip 2<p>Press ""L""</p></div>
            </center>
            <p style=""text-align:center"">Which clip sounds more like someone who was born in Boston?</p>","l","","","","","","","","5","M2_03","M1_04","M2","M1","male","male","The airport is basically a one-story building.","It's a really nice place to live.","long","2","1","",""
"","","","","","audio-keyboard-response","94","363886","0.0-94.0","","","","","","","","","","","","null","../audio/F1_03.WAV","null","F1_03","F1","female","1","2.456333","2.442","I end up going to high school.","","","","","","","","","","","","","",""
"","","","","","audio-keyboard-response","95","368263","0.0-95.0","","","","","","","","","","","","null","../audio/M5_03.WAV","l","M5_03","M5","male","2","4.375990","1.829","So we start transporting, moving kids outside of the neighborhood.","","","","","","","","","","","","","",""
"","","","","","html-keyboard-response","96","370265","0.0-96.0","","","","","","","","","","","","437","
            <center>
                <div id=""clip1"" class=""visual"">Clip 1<p>Press ""S""</p></div>
                <div id=""clip2"" class=""visual"">Clip 2<p>Press ""L""</p></div>
            </center>
            <p style=""text-align:center"">Which clip sounds more like someone who was born in Boston?</p>","l","","","","","","","","6","F1_03","M5_03","F1","M5","female","male","I end up going to high school.","So we start transporting, moving kids outside of the neighborhood.","long","2","1","",""
"","","","","","audio-keyboard-response","97","375446","0.0-97.0","","","","","","","","","","","","null","../audio/F1_04.WAV","null","F1_04","F1","female","1","3.175875","3.149","but majority of the time people offer to pick me up.","","","","","","","","","","","","","",""
"","","","","","audio-keyboard-response","98","377009","0.0-98.0","","","","","","","","","","","","null","../audio/M5_04.WAV","s","M5_04","M5","male","2","1.560854","3.204","and the summer was cold.","","","","","","","","","","","","","",""
"","","","","","html-keyboard-response","99","379012","0.0-99.0","","","","","","","","","","","","1185","
            <center>
                <div id=""clip1"" class=""visual"">Clip 1<p>Press ""S""</p></div>
                <div id=""clip2"" class=""visual"">Clip 2<p>Press ""L""</p></div>
            </center>
            <p style=""text-align:center"">Which clip sounds more like someone who was born in Boston?</p>","s","","","","","","","","7","F1_04","M5_04","F1","M5","female","male","but majority of the time people offer to pick me up.","and the summer was cold.","long","2","1","",""
"","","","","","audio-keyboard-response","100","383975","0.0-100.0","","","","","","","","","","","","null","../audio/F3_03.WAV","null","F3_03","F3","female","1","2.959219","2.028","So initially my father said no.","","","","","","","","","","","","","",""
"","","","","","audio-keyboard-response","101","386541","0.0-101.0","","","","","","","","","","","","null","../audio/M3_04.WAV","s","M3_04","M3","male","2","2.564635","3.508","You had to learn about what they're talking about.","","","","","","","","","","","","","",""
"","","","","","html-keyboard-response","102","388544","0.0-102.0","","","","","","","","","","","","1792","
            <center>
                <div id=""clip1"" class=""visual"">Clip 1<p>Press ""S""</p></div>
                <div id=""clip2"" class=""visual"">Clip 2<p>Press ""L""</p></div>
            </center>
            <p style=""text-align:center"">Which clip sounds more like someone who was born in Boston?</p>","s","","","","","","","","8","F3_03","M3_04","F3","M3","female","male","So initially my father said no.","You had to learn about what they're talking about.","long","2","1","",""
"","","","","","audio-keyboard-response","103","392334","0.0-103.0","","","","","","","","","","","","null","../audio/M4_04.WAV","null","M4_04","M4","male","1","1.785187","3.361","I'm still struggling to be honest.","","","","","","","","","","","","","",""
"","","","","","audio-keyboard-response","104","394474","0.0-104.0","","","","","","","","","","","","null","../audio/M4_03.WAV","s","M4_03","M4","male","2","2.137188","1.872","they didn't really respond","","","","","","","","","","","","","",""
"","","","","","html-keyboard-response","105","396477","0.0-105.0","","","","","","","","","","","","815","
            <center>
                <div id=""clip1"" class=""visual"">Clip 1<p>Press ""S""</p></div>
                <div id=""clip2"" class=""visual"">Clip 2<p>Press ""L""</p></div>
            </center>
            <p style=""text-align:center"">Which clip sounds more like someone who was born in Boston?</p>","s","","","","","","","","9","M4_04","M4_03","M4","M4","male","male","I'm still struggling to be honest.","they didn't really respond","long","2","1","",""
"","","","","","audio-keyboard-response","106","402596","0.0-106.0","","","","","","","","","","","","null","../audio/F3_04.WAV","null","F3_04","F3","female","1","4.115500","2.430","they would also know just because it's easier to identify families.","","","","","","","","","","","","","",""
"","","","","","audio-keyboard-response","107","405976","0.0-107.0","","","","","","","","","","","","null","../audio/M3_03.WAV","s","M3_03","M3","male","2","3.378094","3.553","Probably you heard on the radio or on the news, they are downsizing.","","","","","","","","","","","","","",""
"","","","","","html-keyboard-response","108","407978","0.0-108.0","","","","","","","","","","","","326","
            <center>
                <div id=""clip1"" class=""visual"">Clip 1<p>Press ""S""</p></div>
                <div id=""clip2"" class=""visual"">Clip 2<p>Press ""L""</p></div>
            </center>
            <p style=""text-align:center"">Which clip sounds more like someone who was born in Boston?</p>","s","","","","","","","","10","F3_04","M3_03","F3","M3","female","male","they would also know just because it's easier to identify families.","Probably you heard on the radio or on the news, they are downsizing.","long","2","1","",""
"","","","","","audio-keyboard-response","109","413157","0.0-109.0","","","","","","","","","","","","null","../audio/F1_04.WAV","null","F1_04","F1","female","1","3.175875","3.149","but majority of the time people offer to pick me up.","","","","","","","","","","","","","",""
"","","","","","audio-keyboard-response","110","416187","0.0-110.0","","","","","","","","","","","","null","../audio/M2_03.WAV","s","M2_03","M2","male","2","3.026990","2.643","The airport is basically a one-story building.","","","","","","","","","","","","","",""
"","","","","","html-keyboard-response","111","418189","0.0-111.0","","","","","","","","","","","","1465","
            <center>
                <div id=""clip1"" class=""visual"">Clip 1<p>Press ""S""</p></div>
                <div id=""clip2"" class=""visual"">Clip 2<p>Press ""L""</p></div>
            </center>
            <p style=""text-align:center"">Which clip sounds more like someone who was born in Boston?</p>","s","","","","","","","","11","F1_04","M2_03","F1","M2","female","male","but majority of the time people offer to pick me up.","The airport is basically a one-story building.","long","2","1","",""
"","","","","","audio-keyboard-response","112","421673","0.0-112.0","","","","","","","","","","","","null","../audio/M1_03.WAV","null","M1_03","M1","male","1","1.480896","2.701","you kind of get spoiled.","","","","","","","","","","","","","",""
"","","","","","audio-keyboard-response","113","424635","0.0-113.0","","","","","","","","","","","","null","../audio/F3_03.WAV","l","F3_03","F3","female","2","2.959219","2.028","So initially my father said no.","","","","","","","","","","","","","",""
"","","","","","html-keyboard-response","114","426637","0.0-114.0","","","","","","","","","","","","971","
            <center>
                <div id=""clip1"" class=""visual"">Clip 1<p>Press ""S""</p></div>
                <div id=""clip2"" class=""visual"">Clip 2<p>Press ""L""</p></div>
            </center>
            <p style=""text-align:center"">Which clip sounds more like someone who was born in Boston?</p>","l","","","","","","","","12","M1_03","F3_03","M1","F3","male","female","you kind of get spoiled.","So initially my father said no.","long","2","1","",""
"","","","","","audio-keyboard-response","115","430778","0.0-115.0","","","","","","","","","","","","null","../audio/M4_03.WAV","null","M4_03","M4","male","1","2.137188","1.872","they didn't really respond","","","","","","","","","","","","","",""
"","","","","","audio-keyboard-response","116","434185","0.0-116.0","","","","","","","","","","","","null","../audio/F5_04.WAV","l","F5_04","F5","female","2","3.404396","2.056","After half a year, I start full-time.","","","","","","","","","","","","","",""
"","","","","","html-keyboard-response","117","436188","0.0-117.0","","","","","","","","","","","","1714","
            <center>
                <div id=""clip1"" class=""visual"">Clip 1<p>Press ""S""</p></div>
                <div id=""clip2"" class=""visual"">Clip 2<p>Press ""L""</p></div>
            </center>
            <p style=""text-align:center"">Which clip sounds more like someone who was born in Boston?</p>","l","","","","","","","","13","M4_03","F5_04","M4","F5","male","female","they didn't really respond","After half a year, I start full-time.","long","2","1","",""
"","","","","","audio-keyboard-response","118","441570","0.0-118.0","","","","","","","","","","","","null","../audio/M3_03.WAV","null","M3_03","M3","male","1","3.378094","3.553","Probably you heard on the radio or on the news, they are downsizing.","","","","","","","","","","","","","",""
"","","","","","audio-keyboard-response","119","445947","0.0-119.0","","","","","","","","","","","","null","../audio/M5_03.WAV","l","M5_03","M5","male","2","4.375990","1.829","So we start transporting, moving kids outside of the neighborhood.","","","","","","","","","","","","","",""
"","","","","","html-keyboard-response","120","447950","0.0-120.0","","","","","","","","","","","","374","
            <center>
                <div id=""clip1"" class=""visual"">Clip 1<p>Press ""S""</p></div>
                <div id=""clip2"" class=""visual"">Clip 2<p>Press ""L""</p></div>
            </center>
            <p style=""text-align:center"">Which clip sounds more like someone who was born in Boston?</p>","l","","","","","","","","14","M3_03","M5_03","M3","M5","male","male","Probably you heard on the radio or on the news, they are downsizing.","So we start transporting, moving kids outside of the neighborhood.","long","2","1","",""
"","","","","","audio-keyboard-response","121","453625","0.0-121.0","","","","","","","","","","","","null","../audio/F4_03.WAV","null","F4_03","F4","female","1","3.670938","2.724","Yeah, it was an apartment building. It was like a one-bedroom","","","","","","","","","","","","","",""
"","","","","","audio-keyboard-response","122","456192","0.0-122.0","","","","","","","","","","","","null","../audio/M3_04.WAV","s","M3_04","M3","male","2","2.564635","3.508","You had to learn about what they're talking about.","","","","","","","","","","","","","",""
"","","","","","html-keyboard-response","123","458194","0.0-123.0","","","","","","","","","","","","977","
            <center>
                <div id=""clip1"" class=""visual"">Clip 1<p>Press ""S""</p></div>
                <div id=""clip2"" class=""visual"">Clip 2<p>Press ""L""</p></div>
            </center>
            <p style=""text-align:center"">Which clip sounds more like someone who was born in Boston?</p>","s","","","","","","","","15","F4_03","M3_04","F4","M3","female","male","Yeah, it was an apartment building. It was like a one-bedroom","You had to learn about what they're talking about.","long","2","1","",""
"","","","","","audio-keyboard-response","124","462655","0.0-124.0","","","","","","","","","","","","null","../audio/F1_03.WAV","null","F1_03","F1","female","1","2.456333","2.442","I end up going to high school.","","","","","","","","","","","","","",""
"","","","","","audio-keyboard-response","125","465560","0.0-125.0","","","","","","","","","","","","null","../audio/F2_04.WAV","l","F2_04","F2","female","2","2.902938","4.134","They buy a whole pig and then they eat their way through it.","","","","","","","","","","","","","",""
"","","","","","html-keyboard-response","126","467562","0.0-126.0","","","","","","","","","","","","365","
            <center>
                <div id=""clip1"" class=""visual"">Clip 1<p>Press ""S""</p></div>
                <div id=""clip2"" class=""visual"">Clip 2<p>Press ""L""</p></div>
            </center>
            <p style=""text-align:center"">Which clip sounds more like someone who was born in Boston?</p>","l","","","","","","","","16","F1_03","F2_04","F1","F2","female","female","I end up going to high school.","They buy a whole pig and then they eat their way through it.","long","2","1","",""
"","","","","","audio-keyboard-response","127","471074","0.0-127.0","","","","","","","","","","","","null","../audio/M1_04.WAV","null","M1_04","M1","male","1","1.508312","4.640","It's a really nice place to live.","","","","","","","","","","","","","",""
"","","","","","audio-keyboard-response","128","474239","0.0-128.0","","","","","","","","","","","","null","../audio/F5_03.WAV","s","F5_03","F5","female","2","3.162094","2.530","It was a totally new experience to me.","","","","","","","","","","","","","",""
"","","","","","html-keyboard-response","129","476241","0.0-129.0","","","","","","","","","","","","713","
            <center>
                <div id=""clip1"" class=""visual"">Clip 1<p>Press ""S""</p></div>
                <div id=""clip2"" class=""visual"">Clip 2<p>Press ""L""</p></div>
            </center>
            <p style=""text-align:center"">Which clip sounds more like someone who was born in Boston?</p>","s","","","","","","","","17","M1_04","F5_03","M1","F5","male","female","It's a really nice place to live.","It was a totally new experience to me.","long","2","1","",""
"","","","","","audio-keyboard-response","130","480324","0.0-130.0","","","","","","","","","","","","null","../audio/F2_03.WAV","null","F2_03","F2","female","1","2.078781","4.811","But it was illegal at that time, and I didn't know that.","","","","","","","","","","","","","",""
"","","","","","audio-keyboard-response","131","481887","0.0-131.0","","","","","","","","","","","","null","../audio/M5_04.WAV","l","M5_04","M5","male","2","1.560854","3.204","and the summer was cold.","","","","","","","","","","","","","",""
"","","","","","html-keyboard-response","132","483889","0.0-132.0","","","","","","","","","","","","1767","
            <center>
                <div id=""clip1"" class=""visual"">Clip 1<p>Press ""S""</p></div>
                <div id=""clip2"" class=""visual"">Clip 2<p>Press ""L""</p></div>
            </center>
            <p style=""text-align:center"">Which clip sounds more like someone who was born in Boston?</p>","l","","","","","","","","18","F2_03","M5_04","F2","M5","female","male","But it was illegal at that time, and I didn't know that.","and the summer was cold.","long","2","1","",""
"","","","","","audio-keyboard-response","133","490008","0.0-133.0","","","","","","","","","","","","null","../audio/F3_04.WAV","null","F3_04","F3","female","1","4.115500","2.430","they would also know just because it's easier to identify families.","","","","","","","","","","","","","",""
"","","","","","audio-keyboard-response","134","491796","0.0-134.0","","","","","","","","","","","","null","../audio/M4_04.WAV","s","M4_04","M4","male","2","1.785187","3.361","I'm still struggling to be honest.","","","","","","","","","","","","","",""
"","","","","","html-keyboard-response","135","493799","0.0-135.0","","","","","","","","","","","","877","
            <center>
                <div id=""clip1"" class=""visual"">Clip 1<p>Press ""S""</p></div>
                <div id=""clip2"" class=""visual"">Clip 2<p>Press ""L""</p></div>
            </center>
            <p style=""text-align:center"">Which clip sounds more like someone who was born in Boston?</p>","s","","","","","","","","19","F3_04","M4_04","F3","M4","female","male","they would also know just because it's easier to identify families.","I'm still struggling to be honest.","long","2","1","",""
"","","","","","audio-keyboard-response","136","499792","0.0-136.0","","","","","","","","","","","","null","../audio/F4_04.WAV","null","F4_04","F4","female","1","3.988719","3.509","So when I got in, I knew that I can take the train, it was easy to commute.","","","","","","","","","","","","","",""
"","","","","","audio-keyboard-response","137","501974","0.0-137.0","","","","","","","","","","","","null","../audio/M2_04.WAV","s","M2_04","M2","male","2","2.180729","2.751","People just focus on making money.","","","","","","","","","","","","","",""
"","","","","","html-keyboard-response","138","503977","0.0-138.0","","","","","","","","","","","","887","
            <center>
                <div id=""clip1"" class=""visual"">Clip 1<p>Press ""S""</p></div>
                <div id=""clip2"" class=""visual"">Clip 2<p>Press ""L""</p></div>
            </center>
            <p style=""text-align:center"">Which clip sounds more like someone who was born in Boston?</p>","s","","","","","","","","20","F4_04","M2_04","F4","M2","female","male","So when I got in, I knew that I can take the train, it was easy to commute.","People just focus on making money.","long","2","1","",""
"","","","","","audio-keyboard-response","139","509969","0.0-139.0","","","","","","","","","","","","null","../audio/F4_04.WAV","null","F4_04","F4","female","1","3.988719","3.509","So when I got in, I knew that I can take the train, it was easy to commute.","","","","","","","","","","","","","",""
"","","","","","audio-keyboard-response","140","512108","0.0-140.0","","","","","","","","","","","","null","../audio/M4_03.WAV","s","M4_03","M4","male","2","2.137188","1.872","they didn't really respond","","","","","","","","","","","","","",""
"","","","","","html-keyboard-response","141","514111","0.0-141.0","","","","","","","","","","","","802","
            <center>
                <div id=""clip1"" class=""visual"">Clip 1<p>Press ""S""</p></div>
                <div id=""clip2"" class=""visual"">Clip 2<p>Press ""L""</p></div>
            </center>
            <p style=""text-align:center"">Which clip sounds more like someone who was born in Boston?</p>","s","","","","","","","","1","F4_04","M4_03","F4","M4","female","male","So when I got in, I knew that I can take the train, it was easy to commute.","they didn't really respond","long","3","1","",""
"","","","","","audio-keyboard-response","142","517900","0.0-142.0","","","","","","","","","","","","null","../audio/M4_04.WAV","null","M4_04","M4","male","1","1.785187","3.361","I'm still struggling to be honest.","","","","","","","","","","","","","",""
"","","","","","audio-keyboard-response","143","519980","0.0-143.0","","","","","","","","","","","","null","../audio/F2_03.WAV","l","F2_03","F2","female","2","2.078781","4.811","But it was illegal at that time, and I didn't know that.","","","","","","","","","","","","","",""
"","","","","","html-keyboard-response","144","521983","0.0-144.0","","","","","","","","","","","","337","
            <center>
                <div id=""clip1"" class=""visual"">Clip 1<p>Press ""S""</p></div>
                <div id=""clip2"" class=""visual"">Clip 2<p>Press ""L""</p></div>
            </center>
            <p style=""text-align:center"">Which clip sounds more like someone who was born in Boston?</p>","l","","","","","","","","2","M4_04","F2_03","M4","F2","male","female","I'm still struggling to be honest.","But it was illegal at that time, and I didn't know that.","long","3","1","",""
"","","","","","audio-keyboard-response","145","525468","0.0-145.0","","","","","","","","","","","","null","../audio/M1_03.WAV","null","M1_03","M1","male","1","1.480896","2.701","you kind of get spoiled.","","","","","","","","","","","","","",""
"","","","","","audio-keyboard-response","146","528373","0.0-146.0","","","","","","","","","","","","null","../audio/F2_04.WAV","l","F2_04","F2","female","2","2.902938","4.134","They buy a whole pig and then they eat their way through it.","","","","","","","","","","","","","",""
"","","","","","html-keyboard-response","147","530374","0.0-147.0","","","","","","","","","","","","276","
            <center>
                <div id=""clip1"" class=""visual"">Clip 1<p>Press ""S""</p></div>
                <div id=""clip2"" class=""visual"">Clip 2<p>Press ""L""</p></div>
            </center>
            <p style=""text-align:center"">Which clip sounds more like someone who was born in Boston?</p>","l","","","","","","","","3","M1_03","F2_04","M1","F2","male","female","you kind of get spoiled.","They buy a whole pig and then they eat their way through it.","long","3","1","",""
"","","","","","audio-keyboard-response","148","534559","0.0-148.0","","","","","","","","","","","","null","../audio/M2_04.WAV","null","M2_04","M2","male","1","2.180729","2.751","People just focus on making money.","","","","","","","","","","","","","",""
"","","","","","audio-keyboard-response","149","538233","0.0-149.0","","","","","","","","","","","","null","../audio/F4_03.WAV","l","F4_03","F4","female","2","3.670938","2.724","Yeah, it was an apartment building. It was like a one-bedroom","","","","","","","","","","","","","",""
"","","","","","html-keyboard-response","150","540236","0.0-150.0","","","","","","","","","","","","359","
            <center>
                <div id=""clip1"" class=""visual"">Clip 1<p>Press ""S""</p></div>
                <div id=""clip2"" class=""visual"">Clip 2<p>Press ""L""</p></div>
            </center>
            <p style=""text-align:center"">Which clip sounds more like someone who was born in Boston?</p>","l","","","","","","","","4","M2_04","F4_03","M2","F4","male","female","People just focus on making money.","Yeah, it was an apartment building. It was like a one-bedroom","long","3","1","",""
"","","","","","audio-keyboard-response","151","546356","0.0-151.0","","","","","","","","","","","","null","../audio/F3_04.WAV","null","F3_04","F3","female","1","4.115500","2.430","they would also know just because it's easier to identify families.","","","","","","","","","","","","","",""
"","","","","","audio-keyboard-response","152","548814","0.0-152.0","","","","","","","","","","","","null","../audio/F1_03.WAV","s","F1_03","F1","female","2","2.456333","2.442","I end up going to high school.","","","","","","","","","","","","","",""
"","","","","","html-keyboard-response","153","550818","0.0-153.0","","","","","","","","","","","","1543","
            <center>
                <div id=""clip1"" class=""visual"">Clip 1<p>Press ""S""</p></div>
                <div id=""clip2"" class=""visual"">Clip 2<p>Press ""L""</p></div>
            </center>
            <p style=""text-align:center"">Which clip sounds more like someone who was born in Boston?</p>","s","","","","","","","","5","F3_04","F1_03","F3","F1","female","female","they would also know just because it's easier to identify families.","I end up going to high school.","long","3","1","",""
"","","","","","audio-keyboard-response","154","556227","0.0-154.0","","","","","","","","","","","","null","../audio/F5_04.WAV","null","F5_04","F5","female","1","3.404396","2.056","After half a year, I start full-time.","","","","","","","","","","","","","",""
"","","","","","audio-keyboard-response","155","557737","0.0-155.0","","","","","","","","","","","","null","../audio/M1_04.WAV","l","M1_04","M1","male","2","1.508312","4.640","It's a really nice place to live.","","","","","","","","","","","","","",""
"","","","","","html-keyboard-response","156","559741","0.0-156.0","","","","","","","","","","","","1700","
            <center>
                <div id=""clip1"" class=""visual"">Clip 1<p>Press ""S""</p></div>
                <div id=""clip2"" class=""visual"">Clip 2<p>Press ""L""</p></div>
            </center>
            <p style=""text-align:center"">Which clip sounds more like someone who was born in Boston?</p>","l","","","","","","","","6","F5_04","M1_04","F5","M1","female","male","After half a year, I start full-time.","It's a really nice place to live.","long","3","1","",""
"","","","","","audio-keyboard-response","157","565123","0.0-157.0","","","","","","","","","","","","null","../audio/M3_03.WAV","null","M3_03","M3","male","1","3.378094","3.553","Probably you heard on the radio or on the news, they are downsizing.","","","","","","","","","","","","","",""
"","","","","","audio-keyboard-response","158","568151","0.0-158.0","","","","","","","","","","","","null","../audio/M2_03.WAV","l","M2_03","M2","male","2","3.026990","2.643","The airport is basically a one-story building.","","","","","","","","","","","","","",""
"","","","","","html-keyboard-response","159","570154","0.0-159.0","","","","","","","","","","","","352","
            <center>
                <div id=""clip1"" class=""visual"">Clip 1<p>Press ""S""</p></div>
                <div id=""clip2"" class=""visual"">Clip 2<p>Press ""L""</p></div>
            </center>
            <p style=""text-align:center"">Which clip sounds more like someone who was born in Boston?</p>","l","","","","","","","","7","M3_03","M2_03","M3","M2","male","male","Probably you heard on the radio or on the news, they are downsizing.","The airport is basically a one-story building.","long","3","1","",""
"","","","","","audio-keyboard-response","160","575320","0.0-160.0","","","","","","","","","","","","null","../audio/F5_03.WAV","null","F5_03","F5","female","1","3.162094","2.530","It was a totally new experience to me.","","","","","","","","","","","","","",""
"","","","","","audio-keyboard-response","161","578281","0.0-161.0","","","","","","","","","","","","null","../audio/F3_03.WAV","l","F3_03","F3","female","2","2.959219","2.028","So initially my father said no.","","","","","","","","","","","","","",""
"","","","","","html-keyboard-response","162","580284","0.0-162.0","","","","","","","","","","","","603","
            <center>
                <div id=""clip1"" class=""visual"">Clip 1<p>Press ""S""</p></div>
                <div id=""clip2"" class=""visual"">Clip 2<p>Press ""L""</p></div>
            </center>
            <p style=""text-align:center"">Which clip sounds more like someone who was born in Boston?</p>","l","","","","","","","","8","F5_03","F3_03","F5","F3","female","female","It was a totally new experience to me.","So initially my father said no.","long","3","1","",""
"","","","","","audio-keyboard-response","163","586663","0.0-163.0","","","","","","","","","","","","null","../audio/M5_03.WAV","null","M5_03","M5","male","1","4.375990","1.829","So we start transporting, moving kids outside of the neighborhood.","","","","","","","","","","","","","",""
"","","","","","audio-keyboard-response","164","589841","0.0-164.0","","","","","","","","","","","","null","../audio/F1_04.WAV","s","F1_04","F1","female","2","3.175875","3.149","but majority of the time people offer to pick me up.","","","","","","","","","","","","","",""
"","","","","","html-keyboard-response","165","591844","0.0-165.0","","","","","","","","","","","","482","
            <center>
                <div id=""clip1"" class=""visual"">Clip 1<p>Press ""S""</p></div>
                <div id=""clip2"" class=""visual"">Clip 2<p>Press ""L""</p></div>
            </center>
            <p style=""text-align:center"">Which clip sounds more like someone who was born in Boston?</p>","s","","","","","","","","9","M5_03","F1_04","M5","F1","male","female","So we start transporting, moving kids outside of the neighborhood.","but majority of the time people offer to pick me up.","long","3","1","",""
"","","","","","audio-keyboard-response","166","596412","0.0-166.0","","","","","","","","","","","","null","../audio/M3_04.WAV","null","M3_04","M3","male","1","2.564635","3.508","You had to learn about what they're talking about.","","","","","","","","","","","","","",""
"","","","","","audio-keyboard-response","167","597975","0.0-167.0","","","","","","","","","","","","null","../audio/M5_04.WAV","l","M5_04","M5","male","2","1.560854","3.204","and the summer was cold.","","","","","","","","","","","","","",""
"","","","","","html-keyboard-response","168","599978","0.0-168.0","","","","","","","","","","","","1565","
            <center>
                <div id=""clip1"" class=""visual"">Clip 1<p>Press ""S""</p></div>
                <div id=""clip2"" class=""visual"">Clip 2<p>Press ""L""</p></div>
            </center>
            <p style=""text-align:center"">Which clip sounds more like someone who was born in Boston?</p>","l","","","","","","","","10","M3_04","M5_04","M3","M5","male","male","You had to learn about what they're talking about.","and the summer was cold.","long","3","1","",""
"","","","","","audio-keyboard-response","169","606358","0.0-169.0","","","","","","","","","","","","null","../audio/M5_03.WAV","null","M5_03","M5","male","1","4.375990","1.829","So we start transporting, moving kids outside of the neighborhood.","","","","","","","","","","","","","",""
"","","","","","audio-keyboard-response","170","610475","0.0-170.0","","","","","","","","","","","","null","../audio/F3_04.WAV","l","F3_04","F3","female","2","4.115500","2.430","they would also know just because it's easier to identify families.","","","","","","","","","","","","","",""
"","","","","","html-keyboard-response","171","612478","0.0-171.0","","","","","","","","","","","","693","
            <center>
                <div id=""clip1"" class=""visual"">Clip 1<p>Press ""S""</p></div>
                <div id=""clip2"" class=""visual"">Clip 2<p>Press ""L""</p></div>
            </center>
            <p style=""text-align:center"">Which clip sounds more like someone who was born in Boston?</p>","l","","","","","","","","11","M5_03","F3_04","M5","F3","male","female","So we start transporting, moving kids outside of the neighborhood.","they would also know just because it's easier to identify families.","long","3","1","",""
"","","","","","audio-keyboard-response","172","617645","0.0-172.0","","","","","","","","","","","","null","../audio/F5_03.WAV","null","F5_03","F5","female","1","3.162094","2.530","It was a totally new experience to me.","","","","","","","","","","","","","",""
"","","","","","audio-keyboard-response","173","620823","0.0-173.0","","","","","","","","","","","","null","../audio/F1_04.WAV","l","F1_04","F1","female","2","3.175875","3.149","but majority of the time people offer to pick me up.","","","","","","","","","","","","","",""
"","","","","","html-keyboard-response","174","622826","0.0-174.0","","","","","","","","","","","","1022","
            <center>
                <div id=""clip1"" class=""visual"">Clip 1<p>Press ""S""</p></div>
                <div id=""clip2"" class=""visual"">Clip 2<p>Press ""L""</p></div>
            </center>
            <p style=""text-align:center"">Which clip sounds more like someone who was born in Boston?</p>","l","","","","","","","","12","F5_03","F1_04","F5","F1","female","female","It was a totally new experience to me.","but majority of the time people offer to pick me up.","long","3","1","",""
"","","","","","audio-keyboard-response","175","628501","0.0-175.0","","","","","","","","","","","","null","../audio/F4_03.WAV","null","F4_03","F4","female","1","3.670938","2.724","Yeah, it was an apartment building. It was like a one-bedroom","","","","","","","","","","","","","",""
"","","","","","audio-keyboard-response","176","631530","0.0-176.0","","","","","","","","","","","","null","../audio/M2_03.WAV","s","M2_03","M2","male","2","3.026990","2.643","The airport is basically a one-story building.","","","","","","","","","","","","","",""
"","","","","","html-keyboard-response","177","633532","0.0-177.0","","","","","","","","","","","","298","
            <center>
                <div id=""clip1"" class=""visual"">Clip 1<p>Press ""S""</p></div>
                <div id=""clip2"" class=""visual"">Clip 2<p>Press ""L""</p></div>
            </center>
            <p style=""text-align:center"">Which clip sounds more like someone who was born in Boston?</p>","s","","","","","","","","13","F4_03","M2_03","F4","M2","female","male","Yeah, it was an apartment building. It was like a one-bedroom","The airport is basically a one-story building.","long","3","1","",""
"","","","","","audio-keyboard-response","178","638497","0.0-178.0","","","","","","","","","","","","null","../audio/F3_03.WAV","null","F3_03","F3","female","1","2.959219","2.028","So initially my father said no.","","","","","","","","","","","","","",""
"","","","","","audio-keyboard-response","179","640577","0.0-179.0","","","","","","","","","","","","null","../audio/F2_03.WAV","l","F2_03","F2","female","2","2.078781","4.811","But it was illegal at that time, and I didn't know that.","","","","","","","","","","","","","",""
"","","","","","html-keyboard-response","180","642580","0.0-180.0","","","","","","","","","","","","1393","
            <center>
                <div id=""clip1"" class=""visual"">Clip 1<p>Press ""S""</p></div>
                <div id=""clip2"" class=""visual"">Clip 2<p>Press ""L""</p></div>
            </center>
            <p style=""text-align:center"">Which clip sounds more like someone who was born in Boston?</p>","l","","","","","","","","14","F3_03","F2_03","F3","F2","female","female","So initially my father said no.","But it was illegal at that time, and I didn't know that.","long","3","1","",""
"","","","","","audio-keyboard-response","181","646065","0.0-181.0","","","","","","","","","","","","null","../audio/M1_03.WAV","null","M1_03","M1","male","1","1.480896","2.701","you kind of get spoiled.","","","","","","","","","","","","","",""
"","","","","","audio-keyboard-response","182","649471","0.0-182.0","","","","","","","","","","","","null","../audio/F5_04.WAV","null","F5_04","F5","female","2","3.404396","2.056","After half a year, I start full-time.","","","","","","","","","","","","","",""
"","","","","","html-keyboard-response","183","651474","0.0-183.0","","","","","","","","","","","","null","
            <center>
                <div id=""clip1"" class=""visual"">Clip 1<p>Press ""S""</p></div>
                <div id=""clip2"" class=""visual"">Clip 2<p>Press ""L""</p></div>
            </center>
            <p style=""text-align:center"">Which clip sounds more like someone who was born in Boston?</p>","null","","","","","","","","15","M1_03","F5_04","M1","F5","male","female","you kind of get spoiled.","After half a year, I start full-time.","long","3","1","",""
"","","","","","audio-keyboard-response","184","655039","0.0-184.0","","","","","","","","","","","","null","../audio/M5_04.WAV","null","M5_04","M5","male","1","1.560854","3.204","and the summer was cold.","","","","","","","","","","","","","",""
"","","","","","audio-keyboard-response","185","659029","0.0-185.0","","","","","","","","","","","","null","../audio/F4_04.WAV","l","F4_04","F4","female","2","3.988719","3.509","So when I got in, I knew that I can take the train, it was easy to commute.","","","","","","","","","","","","","",""
"","","","","","html-keyboard-response","186","661032","0.0-186.0","","","","","","","","","","","","459","
            <center>
                <div id=""clip1"" class=""visual"">Clip 1<p>Press ""S""</p></div>
                <div id=""clip2"" class=""visual"">Clip 2<p>Press ""L""</p></div>
            </center>
            <p style=""text-align:center"">Which clip sounds more like someone who was born in Boston?</p>","l","","","","","","","","16","M5_04","F4_04","M5","F4","male","female","and the summer was cold.","So when I got in, I knew that I can take the train, it was easy to commute.","long","3","1","",""
"","","","","","audio-keyboard-response","187","665173","0.0-187.0","","","","","","","","","","","","null","../audio/M4_03.WAV","null","M4_03","M4","male","1","2.137188","1.872","they didn't really respond","","","","","","","","","","","","","",""
"","","","","","audio-keyboard-response","188","668553","0.0-188.0","","","","","","","","","","","","null","../audio/M3_03.WAV","l","M3_03","M3","male","2","3.378094","3.553","Probably you heard on the radio or on the news, they are downsizing.","","","","","","","","","","","","","",""
"","","","","","html-keyboard-response","189","670556","0.0-189.0","","","","","","","","","","","","1325","
            <center>
                <div id=""clip1"" class=""visual"">Clip 1<p>Press ""S""</p></div>
                <div id=""clip2"" class=""visual"">Clip 2<p>Press ""L""</p></div>
            </center>
            <p style=""text-align:center"">Which clip sounds more like someone who was born in Boston?</p>","l","","","","","","","","17","M4_03","M3_03","M4","M3","male","male","they didn't really respond","Probably you heard on the radio or on the news, they are downsizing.","long","3","1","",""
"","","","","","audio-keyboard-response","190","675016","0.0-190.0","","","","","","","","","","","","null","../audio/F1_03.WAV","null","F1_03","F1","female","1","2.456333","2.442","I end up going to high school.","","","","","","","","","","","","","",""
"","","","","","audio-keyboard-response","191","676804","0.0-191.0","","","","","","","","","","","","null","../audio/M4_04.WAV","s","M4_04","M4","male","2","1.785187","3.361","I'm still struggling to be honest.","","","","","","","","","","","","","",""
"","","","","","html-keyboard-response","192","678806","0.0-192.0","","","","","","","","","","","","507","
            <center>
                <div id=""clip1"" class=""visual"">Clip 1<p>Press ""S""</p></div>
                <div id=""clip2"" class=""visual"">Clip 2<p>Press ""L""</p></div>
            </center>
            <p style=""text-align:center"">Which clip sounds more like someone who was born in Boston?</p>","s","","","","","","","","18","F1_03","M4_04","F1","M4","female","male","I end up going to high school.","I'm still struggling to be honest.","long","3","1","",""
"","","","","","audio-keyboard-response","193","683713","0.0-193.0","","","","","","","","","","","","null","../audio/F2_04.WAV","null","F2_04","F2","female","1","2.902938","4.134","They buy a whole pig and then they eat their way through it.","","","","","","","","","","","","","",""
"","","","","","audio-keyboard-response","194","685896","0.0-194.0","","","","","","","","","","","","null","../audio/M2_04.WAV","s","M2_04","M2","male","2","2.180729","2.751","People just focus on making money.","","","","","","","","","","","","","",""
"","","","","","html-keyboard-response","195","687898","0.0-195.0","","","","","","","","","","","","457","
            <center>
                <div id=""clip1"" class=""visual"">Clip 1<p>Press ""S""</p></div>
                <div id=""clip2"" class=""visual"">Clip 2<p>Press ""L""</p></div>
            </center>
            <p style=""text-align:center"">Which clip sounds more like someone who was born in Boston?</p>","s","","","","","","","","19","F2_04","M2_04","F2","M2","female","male","They buy a whole pig and then they eat their way through it.","People just focus on making money.","long","3","1","",""
"","","","","","audio-keyboard-response","196","691411","0.0-196.0","","","","","","","","","","","","null","../audio/M1_04.WAV","null","M1_04","M1","male","1","1.508312","4.640","It's a really nice place to live.","","","","","","","","","","","","","",""
"","","","","","audio-keyboard-response","197","693977","0.0-197.0","","","","","","","","","","","","null","../audio/M3_04.WAV","s","M3_04","M3","male","2","2.564635","3.508","You had to learn about what they're talking about.","","","","","","","","","","","","","",""
"","","","","","html-keyboard-response","198","695980","0.0-198.0","","","","","","","","","","","","309","
            <center>
                <div id=""clip1"" class=""visual"">Clip 1<p>Press ""S""</p></div>
                <div id=""clip2"" class=""visual"">Clip 2<p>Press ""L""</p></div>
            </center>
            <p style=""text-align:center"">Which clip sounds more like someone who was born in Boston?</p>","s","","","","","","","","20","M1_04","M3_04","M1","M3","male","male","It's a really nice place to live.","You had to learn about what they're talking about.","long","3","1","",""
"","","","","","audio-keyboard-response","199","699694","0.0-199.0","","","","","","","","","","","","null","../audio/M3_02.WAV","null","M3_02","M3","male","1","1.709750","2.924","And then on Sunday morning","","","","","","","","","","","","","",""
"","","","","","audio-keyboard-response","200","703964","0.0-200.0","","","","","","","","","","","","null","../audio/F3_01.WAV","l","F3_01","F3","female","2","4.267563","1.875","my parents, my two sisters, and my two brothers.","","","","","","","","","","","","","",""
"","","","","","html-keyboard-response","201","705967","0.0-201.0","","","","","","","","","","","","1290","
            <center>
                <div id=""clip1"" class=""visual"">Clip 1<p>Press ""S""</p></div>
                <div id=""clip2"" class=""visual"">Clip 2<p>Press ""L""</p></div>
            </center>
            <p style=""text-align:center"">Which clip sounds more like someone who was born in Boston?</p>","l","","","","","","","","1","M3_02","F3_01","M3","F3","male","female","And then on Sunday morning","my parents, my two sisters, and my two brothers.","short","4","1","",""
"","","","","","audio-keyboard-response","202","709806","0.0-202.0","","","","","","","","","","","","null","../audio/F4_01.WAV","null","F4_01","F4","female","1","1.835479","2.724","Probably right before I turned six.","","","","","","","","","","","","","",""
"","","","","","audio-keyboard-response","203","712037","0.0-203.0","","","","","","","","","","","","null","../audio/M5_02.WAV","l","M5_02","M5","male","2","2.229229","2.244","Because back in the seventies,","","","","","","","","","","","","","",""
"","","","","","html-keyboard-response","204","714040","0.0-204.0","","","","","","","","","","","","816","
            <center>
                <div id=""clip1"" class=""visual"">Clip 1<p>Press ""S""</p></div>
                <div id=""clip2"" class=""visual"">Clip 2<p>Press ""L""</p></div>
            </center>
            <p style=""text-align:center"">Which clip sounds more like someone who was born in Boston?</p>","l","","","","","","","","2","F4_01","M5_02","F4","M5","female","male","Probably right before I turned six.","Because back in the seventies,","short","4","1","",""
"","","","","","audio-keyboard-response","205","718774","0.0-205.0","","","","","","","","","","","","null","../audio/F1_01.WAV","null","F1_01","F1","female","1","2.729260","1.832","because of the limited space.","","","","","","","","","","","","","",""
"","","","","","audio-keyboard-response","206","720640","0.0-206.0","","","","","","","","","","","","null","../audio/M5_01.WAV","l","M5_01","M5","male","2","1.863625","3.755","half an hour, probably fourty five minutes away.","","","","","","","","","","","","","",""
"","","","","","html-keyboard-response","207","722643","0.0-207.0","","","","","","","","","","","","356","
            <center>
                <div id=""clip1"" class=""visual"">Clip 1<p>Press ""S""</p></div>
                <div id=""clip2"" class=""visual"">Clip 2<p>Press ""L""</p></div>
            </center>
            <p style=""text-align:center"">Which clip sounds more like someone who was born in Boston?</p>","l","","","","","","","","3","F1_01","M5_01","F1","M5","female","male","because of the limited space.","half an hour, probably fourty five minutes away.","short","4","1","",""
"","","","","","audio-keyboard-response","208","725867","0.0-208.0","","","","","","","","","","","","null","../audio/M1_01.WAV","null","M1_01","M1","male","1","1.220375","4.095","being in the medical field,","","","","","","","","","","","","","",""
"","","","","","audio-keyboard-response","209","726754","0.0-209.0","","","","","","","","","","","","null","../audio/M4_01.WAV","s","M4_01","M4","male","2","0.883969","3.393","yeah last fall","","","","","","","","","","","","","",""
"","","","","","html-keyboard-response","210","728757","0.0-210.0","","","","","","","","","","","","1351","
            <center>
                <div id=""clip1"" class=""visual"">Clip 1<p>Press ""S""</p></div>
                <div id=""clip2"" class=""visual"">Clip 2<p>Press ""L""</p></div>
            </center>
            <p style=""text-align:center"">Which clip sounds more like someone who was born in Boston?</p>","s","","","","","","","","4","M1_01","M4_01","M1","M4","male","male","being in the medical field,","yeah last fall","short","4","1","",""
"","","","","","audio-keyboard-response","211","733427","0.0-211.0","","","","","","","","","","","","null","../audio/M2_02.WAV","null","M2_02","M2","male","1","2.665333","3.001","But later on, when I traveled quite a bit,","","","","","","","","","","","","","",""
"","","","","","audio-keyboard-response","212","734455","0.0-212.0","","","","","","","","","","","","null","../audio/M2_01.WAV","l","M2_01","M2","male","2","1.025729","3.900","being in the squallor.","","","","","","","","","","","","","",""
"","","","","","html-keyboard-response","213","736458","0.0-213.0","","","","","","","","","","","","511","
            <center>
                <div id=""clip1"" class=""visual"">Clip 1<p>Press ""S""</p></div>
                <div id=""clip2"" class=""visual"">Clip 2<p>Press ""L""</p></div>
            </center>
            <p style=""text-align:center"">Which clip sounds more like someone who was born in Boston?</p>","l","","","","","","","","5","M2_02","M2_01","M2","M2","male","male","But later on, when I traveled quite a bit,","being in the squallor.","short","4","1","",""
"","","","","","audio-keyboard-response","214","739463","0.0-214.0","","","","","","","","","","","","null","../audio/M1_02.WAV","null","M1_02","M1","male","1","0.999906","2.000","parallel ways.","","","","","","","","","","","","","",""
"","","","","","audio-keyboard-response","215","740630","0.0-215.0","","","","","","","","","","","","null","../audio/F3_02.WAV","l","F3_02","F3","female","2","1.165760","2.574","as homeless people.","","","","","","","","","","","","","",""
"","","","","","html-keyboard-response","216","742633","0.0-216.0","","","","","","","","","","","","243","
            <center>
                <div id=""clip1"" class=""visual"">Clip 1<p>Press ""S""</p></div>
                <div id=""clip2"" class=""visual"">Clip 2<p>Press ""L""</p></div>
            </center>
            <p style=""text-align:center"">Which clip sounds more like someone who was born in Boston?</p>","l","","","","","","","","6","M1_02","F3_02","M1","F3","male","female","parallel ways.","as homeless people.","short","4","1","",""
"","","","","","audio-keyboard-response","217","746388","0.0-217.0","","","","","","","","","","","","null","../audio/F5_02.WAV","null","F5_02","F5","female","1","1.750198","2.286","My father also, you know,","","","","","","","","","","","","","",""
"","","","","","audio-keyboard-response","218","748050","0.0-218.0","","","","","","","","","","","","null","../audio/M3_01.WAV","s","M3_01","M3","male","2","1.659469","2.411","to further my education.","","","","","","","","","","","","","",""
"","","","","","html-keyboard-response","219","750053","0.0-219.0","","","","","","","","","","","","347","
            <center>
                <div id=""clip1"" class=""visual"">Clip 1<p>Press ""S""</p></div>
                <div id=""clip2"" class=""visual"">Clip 2<p>Press ""L""</p></div>
            </center>
            <p style=""text-align:center"">Which clip sounds more like someone who was born in Boston?</p>","s","","","","","","","","7","F5_02","M3_01","F5","M3","female","male","My father also, you know,","to further my education.","short","4","1","",""
"","","","","","audio-keyboard-response","220","754343","0.0-220.0","","","","","","","","","","","","null","../audio/F1_02.WAV","null","F1_02","F1","female","1","2.286385","2.187","clothes or fashion for that matter.","","","","","","","","","","","","","",""
"","","","","","audio-keyboard-response","221","757260","0.0-221.0","","","","","","","","","","","","null","../audio/F4_02.WAV","s","F4_02","F4","female","2","2.916635","2.058","Yeah, a little bit, like elementary school.","","","","","","","","","","","","","",""
"","","","","","html-keyboard-response","222","759263","0.0-222.0","","","","","","","","","","","","398","
            <center>
                <div id=""clip1"" class=""visual"">Clip 1<p>Press ""S""</p></div>
                <div id=""clip2"" class=""visual"">Clip 2<p>Press ""L""</p></div>
            </center>
            <p style=""text-align:center"">Which clip sounds more like someone who was born in Boston?</p>","s","","","","","","","","8","F1_02","F4_02","F1","F4","female","female","clothes or fashion for that matter.","Yeah, a little bit, like elementary school.","short","4","1","",""
"","","","","","audio-keyboard-response","223","763168","0.0-223.0","","","","","","","","","","","","null","../audio/F2_02.WAV","null","F2_02","F2","female","1","1.902969","2.627","And so my mother also","","","","","","","","","","","","","",""
"","","","","","audio-keyboard-response","224","765708","0.0-224.0","","","","","","","","","","","","null","../audio/M4_02.WAV","s","M4_02","M4","male","2","2.538281","2.364","the most intimate group of friends,","","","","","","","","","","","","","",""
"","","","","","html-keyboard-response","225","767711","0.0-225.0","","","","","","","","","","","","158","
            <center>
                <div id=""clip1"" class=""visual"">Clip 1<p>Press ""S""</p></div>
                <div id=""clip2"" class=""visual"">Clip 2<p>Press ""L""</p></div>
            </center>
            <p style=""text-align:center"">Which clip sounds more like someone who was born in Boston?</p>","s","","","","","","","","9","F2_02","M4_02","F2","M4","female","male","And so my mother also","the most intimate group of friends,","short","4","1","",""
"","","","","","audio-keyboard-response","226","771370","0.0-226.0","","","","","","","","","","","","null","../audio/F2_01.WAV","null","F2_01","F2","female","1","1.654760","3.021","and then upstairs in her apartment,","","","","","","","","","","","","","",""
"","","","","","audio-keyboard-response","227","772207","0.0-227.0","","","","","","","","","","","","null","../audio/F5_01.WAV","s","F5_01","F5","female","2","0.835490","3.592","Oh my god.","","","","","","","","","","","","","",""
"","","","","","html-keyboard-response","228","774211","0.0-228.0","","","","","","","","","","","","810","
            <center>
                <div id=""clip1"" class=""visual"">Clip 1<p>Press ""S""</p></div>
                <div id=""clip2"" class=""visual"">Clip 2<p>Press ""L""</p></div>
            </center>
            <p style=""text-align:center"">Which clip sounds more like someone who was born in Boston?</p>","s","","","","","","","","10","F2_01","F5_01","F2","F5","female","female","and then upstairs in her apartment,","Oh my god.","short","4","1","",""
"","","","","","audio-keyboard-response","229","777901","0.0-229.0","","","","","","","","","","","","null","../audio/F5_02.WAV","null","F5_02","F5","female","1","1.750198","2.286","My father also, you know,","","","","","","","","","","","","","",""
"","","","","","audio-keyboard-response","230","778738","0.0-230.0","","","","","","","","","","","","null","../audio/F5_01.WAV","l","F5_01","F5","female","2","0.835490","3.592","Oh my god.","","","","","","","","","","","","","",""
"","","","","","html-keyboard-response","231","780740","0.0-231.0","","","","","","","","","","","","1134","
            <center>
                <div id=""clip1"" class=""visual"">Clip 1<p>Press ""S""</p></div>
                <div id=""clip2"" class=""visual"">Clip 2<p>Press ""L""</p></div>
            </center>
            <p style=""text-align:center"">Which clip sounds more like someone who was born in Boston?</p>","l","","","","","","","","11","F5_02","F5_01","F5","F5","female","female","My father also, you know,","Oh my god.","short","4","1","",""
"","","","","","audio-keyboard-response","232","784646","0.0-232.0","","","","","","","","","","","","null","../audio/F2_02.WAV","null","F2_02","F2","female","1","1.902969","2.627","And so my mother also","","","","","","","","","","","","","",""
"","","","","","audio-keyboard-response","233","787185","0.0-233.0","","","","","","","","","","","","null","../audio/M4_02.WAV","s","M4_02","M4","male","2","2.538281","2.364","the most intimate group of friends,","","","","","","","","","","","","","",""
"","","","","","html-keyboard-response","234","789188","0.0-234.0","","","","","","","","","","","","275","
            <center>
                <div id=""clip1"" class=""visual"">Clip 1<p>Press ""S""</p></div>
                <div id=""clip2"" class=""visual"">Clip 2<p>Press ""L""</p></div>
            </center>
            <p style=""text-align:center"">Which clip sounds more like someone who was born in Boston?</p>","s","","","","","","","","12","F2_02","M4_02","F2","M4","female","male","And so my mother also","the most intimate group of friends,","short","4","1","",""
"","","","","","audio-keyboard-response","235","793922","0.0-235.0","","","","","","","","","","","","null","../audio/F1_01.WAV","null","F1_01","F1","female","1","2.729260","1.832","because of the limited space.","","","","","","","","","","","","","",""
"","","","","","audio-keyboard-response","236","794950","0.0-236.0","","","","","","","","","","","","null","../audio/M2_01.WAV","l","M2_01","M2","male","2","1.025729","3.900","being in the squallor.","","","","","","","","","","","","","",""
"","","","","","html-keyboard-response","237","796953","0.0-237.0","","","","","","","","","","","","419","
            <center>
                <div id=""clip1"" class=""visual"">Clip 1<p>Press ""S""</p></div>
                <div id=""clip2"" class=""visual"">Clip 2<p>Press ""L""</p></div>
            </center>
            <p style=""text-align:center"">Which clip sounds more like someone who was born in Boston?</p>","l","","","","","","","","13","F1_01","M2_01","F1","M2","female","male","because of the limited space.","being in the squallor.","short","4","1","",""
"","","","","","audio-keyboard-response","238","801186","0.0-238.0","","","","","","","","","","","","null","../audio/M5_02.WAV","null","M5_02","M5","male","1","2.229229","2.244","Because back in the seventies,","","","","","","","","","","","","","",""
"","","","","","audio-keyboard-response","239","803853","0.0-239.0","","","","","","","","","","","","null","../audio/M2_02.WAV","s","M2_02","M2","male","2","2.665333","3.001","But later on, when I traveled quite a bit,","","","","","","","","","","","","","",""
"","","","","","html-keyboard-response","240","805856","0.0-240.0","","","","","","","","","","","","337","
            <center>
                <div id=""clip1"" class=""visual"">Clip 1<p>Press ""S""</p></div>
                <div id=""clip2"" class=""visual"">Clip 2<p>Press ""L""</p></div>
            </center>
            <p style=""text-align:center"">Which clip sounds more like someone who was born in Boston?</p>","s","","","","","","","","14","M5_02","M2_02","M5","M2","male","male","Because back in the seventies,","But later on, when I traveled quite a bit,","short","4","1","",""
"","","","","","audio-keyboard-response","241","810146","0.0-241.0","","","","","","","","","","","","null","../audio/F1_02.WAV","null","F1_02","F1","female","1","2.286385","2.187","clothes or fashion for that matter.","","","","","","","","","","","","","",""
"","","","","","audio-keyboard-response","242","811147","0.0-242.0","","","","","","","","","","","","null","../audio/M1_02.WAV","s","M1_02","M1","male","2","0.999906","2.000","parallel ways.","","","","","","","","","","","","","",""
"","","","","","html-keyboard-response","243","813150","0.0-243.0","","","","","","","","","","","","252","
            <center>
                <div id=""clip1"" class=""visual"">Clip 1<p>Press ""S""</p></div>
                <div id=""clip2"" class=""visual"">Clip 2<p>Press ""L""</p></div>
            </center>
            <p style=""text-align:center"">Which clip sounds more like someone who was born in Boston?</p>","s","","","","","","","","15","F1_02","M1_02","F1","M1","female","male","clothes or fashion for that matter.","parallel ways.","short","4","1","",""
"","","","","","audio-keyboard-response","244","817018","0.0-244.0","","","","","","","","","","","","null","../audio/M5_01.WAV","null","M5_01","M5","male","1","1.863625","3.755","half an hour, probably fourty five minutes away.","","","","","","","","","","","","","",""
"","","","","","audio-keyboard-response","245","821287","0.0-245.0","","","","","","","","","","","","null","../audio/F3_01.WAV","s","F3_01","F3","female","2","4.267563","1.875","my parents, my two sisters, and my two brothers.","","","","","","","","","","","","","",""
"","","","","","html-keyboard-response","246","823291","0.0-246.0","","","","","","","","","","","","470","
            <center>
                <div id=""clip1"" class=""visual"">Clip 1<p>Press ""S""</p></div>
                <div id=""clip2"" class=""visual"">Clip 2<p>Press ""L""</p></div>
            </center>
