"success","timeout","failed_images","failed_audio","failed_video","trial_type","trial_index","time_elapsed","internal_node_id","width","height","webaudio","browser","browser_version","mobile","os","fullscreen","vsync_rate","webcam","microphone","rt","stimulus","response","ID","talker","gender","order","duration","speech_rate","transcript","Order","clip1_id","clip2_id","clip1_speaker","clip2_speaker","clip1_gender","clip2_gender","clip1_transcript","clip2_transcript","block_type","block_number","counterbalance_id","accuracy","question_order"
"true","false","[]","[]","[]","preload","0","2163","0.0-0.0","","","","","","","","","","","","","","","","","","","","","","","","","","","","","","","","","","",""
"true","false","[]","[]","[]","preload","1","8504","0.0-1.0","","","","","","","","","","","","","","","","","","","","","","","","","","","","","","","","","","",""
"","","","","","browser-check","2","9767","0.0-2.0","1920","945","true","chrome","136.0.0","false","Windows 10","true","60.69","true","true","","","","","","","","","","","","","","","","","","","","","","","",""
"","","","","","html-button-response","3","38439","0.0-3.0","","","","","","","","","","","","28416","
        <div class=""text"" id=""instruction"" >
            <img src=""../images/stanford_logo.png"" alt=""stanford logo"" width=""180"" height=""80"">
            <p><b>Only complete this study if you are a Massachussets resident who is 18 years old or older.</b></p>
            <p>Please share this link with other people you know who live in the area, but <u>do not participate in this study more than once</u>.
            <BR>You will not be compensated more than once.</p> 
            <p>In this experiment, you will be listening to pairs of audio clips.</p>
            <p>Each pair of audio clips will be played once in consecutive order. Your task is to decide which one of the clips sounds like the speaker was born in Boston.</p>
            <p>Please ensure that you use earphones or headphones for the duration of this experiment.</p>
            <p>This experiment should be completed on a <b><u>desktop or laptop</u></b> using the <b><u>Google Chrome browser</u></b>.</p>
            <p>The experiment will take approximately 20 minutes. You will be compensated as advertised on Prolific for your time.</p>
        </div>
      ","0","","","","","","","","","","","","","","","","","","","","",""
"","","","","","html-button-response","4","41526","0.0-4.0","","","","","","","","","","","","2813","<p><strong>Thank you for your participation in this study. Please read the protocol below.</strong></p>
        <p>Protocol Director: Robert Hawkins</P
        <p>Protocol Title: Communication and social cognition in natural audiovisual contexts IRB# 77226</p>
        <p>DESCRIPTION: You are invited to participate in a research study about language and communication. 
        The purpose of the research is to understand how you interact and communicate with other people in naturalistic settings as a fluent English speaker. 
        This research will be conducted through the Prolific platform, including participants from the US, UK, and Canada. 
        If you decide to participate in this research, you will play a communication game in a group with one or more partners.</p>
        <p>TIME INVOLVEMENT: The task will last the amount of time advertised on Prolific. You are free to withdraw from the study at any time.</p>
        <p>RISKS AND BENEFITS: You may become frustrated if your partner gets distracted, or experience discomfort if other participants in your group 
        send text that is inappropriate for the task. We ask you to please be respectful of other participants you might be
        interacting with to mitigate these risks. You may also experience discomfort when being asked to discuss or challenge emotionally salient political beliefs. Study data will be
        stored securely, in compliance with Stanford University standards, minimizing the risk of confidentiality breach. This study advances our scientific understanding of how people
        communication and collaborate in naturalistic settings. This study may lead to further
        insights about what can go wrong in teamwork, suggest potential interventions to
        overcome these barriers, and help to develop assistive technologies that collaborate with
        human partners. We cannot and do not guarantee or promise that you will receive any benefits from this study.</p>
        <p>PAYMENTS: You will receive payment in the amount advertised on Prolific. If you do not complete this study, you will receive prorated payment based on the time that you have
        spent. Additionally, you may be eligible for bonus payments as described in the instructions.</p>
        <p> PARTICIPANTS RIGHTS: If you have read this form and have decided to participate in this project, please understand your participation is voluntary and you have the right
        to withdraw your consent or discontinue participation at any time without penalty or loss of benefits to which you are otherwise entitled. The alternative
        is not to participate. You have the right to refuse to answer particular questions. The results of this research study may be presented at scientific or professional meetings or
        published in scientific journals. Your individual privacy will be maintained in all published and written data resulting from the study. In accordance with scientific norms, the data
        from this study may be used or shared with other researchers for future research (after removing personally identifying information) without additional consent from you.</p>
        <p>CONTACT INFORMATION: Questions: If you have any questions, concerns or complaints about this research, its procedures, risks and benefits, contact the Protocol Director, Robert Hawkins (rdhawkins@stanford.edu, 217-549-6923).</p>
        <p>Independent Contact: If you are not satisfied with how this study is being conducted, or if you have any concerns, complaints, or general questions about the research or your rights as a participant, please contact the Stanford Institutional Review Board (IRB) to
        speak to someone independent of the research team at 650-723-2480 or toll free at 1-866-680-2906, or email at irbnonmed@stanford.edu. You can also write to the Stanford IRB, Stanford University, 1705 El Camino Real, Palo Alto, CA 94306. Please save or print a
        copy of this page for your records.</p>
        <p>If you agree to participate in this research, press the <strong>CONTINUE</strong> button to begin.</p> 
      ","0","","","","","","","","","","","","","","","","","","","","",""
"","","","","","cloze","5","53567","0.0-5.0","","","","","","","","","","","","","","[""friends""]","","","","","","","","","","","","","","","","","","","","",""
"","","","","","html-button-response","6","103126","0.0-6.0","","","","","","","","","","","","49300","
    <center>
      <div class=""instruction-box"">
        <p>You will now begin the practice trials.</p>
        <p>In each trial, two audio clips will play one after another. You will hear a variety of sentences and phrases spoken by different talkers.</p>
        <p>Each audio clip will only be played once and you will not be able to replay them.</p>
        <p><strong>Your task is to decide which clip sounds more like the speaker was born in Boston.</strong></p>
        <p><strong>These clips come from a range of different people so they might not all sound like your typical Bostonian, but just make your best guess as quickly as possible.</strong></p>        
  </center>
        ","0","","","","","","","","","","","","","","","","","","","","",""
"","","","","","html-button-response","7","130654","0.0-7.0","","","","","","","","","","","","27267","
    <center>   
      <div class=""instruction-box"">   
        <p>Please place your left index finger on the ""S"" key and your right index finger on the ""L"" key.</p>
        <p><img src=""../procedures/keyboard.png"" width=""500"" style=""margin-top:-10px""></p>
        <p>If the <strong>first clip</strong> sounds more like someone who was born in Boston, please <strong>press S</strong>.</p>
        <p>If the <strong>second clip</strong> sounds more like someone who was born in Boston, please <strong>press L</strong>.</p>
        <p><b>Respond as quickly as possible when both clips have finished playing.</b></p>
        <p>This is a timed task. If you do not respond in time, the next question will appear automatically.</p>
        <p><b>Please answer as quickly and accurately as possible.</b></p>
    </center>
        ","0","","","","","","","","","","","","","","","","","","","","",""
"","","","","","audio-keyboard-response","8","134913","0.0-8.0","","","","","","","","","","","","null","../practice/trial1_clip1.WAV","null","practice_trial1_clip1","practice_speaker","unknown","1","4","unknown","practice_transcript","","","","","","","","","","","","","",""
"","","","","","audio-keyboard-response","9","138917","0.0-9.0","","","","","","","","","","","","null","../practice/trial1_clip2.WAV","l","practice_trial1_clip2","practice_speaker","unknown","2","4","unknown","practice_transcript","","","","","","","","","","","","","",""
"","","","","","html-keyboard-response","10","140922","0.0-10.0","","","","","","","","","","","","665","
        <center>
            <div id=""clip1"" class=""visual"">Clip 1<p>Press ""S""</p></div>
            <div id=""clip2"" class=""visual"">Clip 2<p>Press ""L""</p></div>
        </center>
        <p style=""text-align:center"">Which clip sounds more like someone who was born in Boston?</p>","l","","","","","","","","1","practice_trial1_clip1","practice_trial1_clip2","","","","","","","","","","",""
"","","","","","audio-keyboard-response","11","146438","0.0-11.0","","","","","","","","","","","","null","../practice/trial2_clip1.WAV","null","practice_trial2_clip1","practice_speaker","unknown","1","4","unknown","practice_transcript","","","","","","","","","","","","","",""
"","","","","","audio-keyboard-response","12","150449","0.0-12.0","","","","","","","","","","","","null","../practice/trial2_clip2.WAV","l","practice_trial2_clip2","practice_speaker","unknown","2","4","unknown","practice_transcript","","","","","","","","","","","","","",""
"","","","","","html-keyboard-response","13","152451","0.0-13.0","","","","","","","","","","","","748","
        <center>
            <div id=""clip1"" class=""visual"">Clip 1<p>Press ""S""</p></div>
            <div id=""clip2"" class=""visual"">Clip 2<p>Press ""L""</p></div>
        </center>
        <p style=""text-align:center"">Which clip sounds more like someone who was born in Boston?</p>","l","","","","","","","","2","practice_trial2_clip1","practice_trial2_clip2","","","","","","","","","","",""
"","","","","","audio-keyboard-response","14","157972","0.0-14.0","","","","","","","","","","","","null","../practice/trial3_clip1.WAV","null","practice_trial3_clip1","practice_speaker","unknown","1","4","unknown","practice_transcript","","","","","","","","","","","","","",""
"","","","","","audio-keyboard-response","15","161978","0.0-15.0","","","","","","","","","","","","null","../practice/trial3_clip2.WAV","s","practice_trial3_clip2","practice_speaker","unknown","2","4","unknown","practice_transcript","","","","","","","","","","","","","",""
"","","","","","html-keyboard-response","16","163989","0.0-16.0","","","","","","","","","","","","685","
        <center>
            <div id=""clip1"" class=""visual"">Clip 1<p>Press ""S""</p></div>
            <div id=""clip2"" class=""visual"">Clip 2<p>Press ""L""</p></div>
        </center>
        <p style=""text-align:center"">Which clip sounds more like someone who was born in Boston?</p>","s","","","","","","","","3","practice_trial3_clip1","practice_trial3_clip2","","","","","","","","","","",""
"","","","","","html-button-response","17","172455","0.0-17.0","","","","","","","","","","","","6962","
    <center>
      <div class=""instruction-box"">
        <p>You will now begin the experiment.</p>
        <p>In each trial, two audio clips will play one after another. You will hear a variety of sentences and phrases spoken by different talkers.</p>
        <p>Each audio clip will only be played once and you will not be able to replay them.</p>
        <p><strong>Your task is to decide which clip sounds more like someone who was born in Boston.</strong></p>
        <p><strong>These clips come from a range of different people so they might not all sound like your typical Bostonian, but please do your best to respond as quickly as possible.</strong></p>
    </center>
        ","0","","","","","","","","","","","","","","","","","","","","",""
"","","","","","html-button-response","18","176374","0.0-18.0","","","","","","","","","","","","3664","
    <center>
      <div class=""instruction-box"">
        <p>Please place your left index finger on the ""S"" key and your right index finger on the ""L"" key.</p>
        <p><img src=""../procedures/keyboard.png"" width=""500"" style=""margin-top:-10px""></p>
        <p>If the <strong>first clip</strong> sounds more like someone who was born in Boston, please <strong>press S</strong>.</p>
        <p>If the <strong>second clip</strong> sounds more like someone who was born in Boston, please <strong>press L</strong>.</p>
        <p><b>Respond as quickly as possible when both clips have finished playing.</b></p>
        <p>This is a timed task. If you do not respond in time, the next question will appear automatically.</p>
        <p><b>Please answer as quickly and accurately as possible.</b></p>
    </center>
        ","0","","","","","","","","","","","","","","","","","","","","",""
"","","","","","audio-keyboard-response","19","177973","0.0-19.0","","","","","","","","","","","","null","../audio/F5_01.WAV","null","F5_01","F5","female","1","0.835490","3.592","Oh my god.","","","","","","","","","","","","","",""
"","","","","","audio-keyboard-response","20","179686","0.0-20.0","","","","","","","","","","","","null","../audio/M3_02.WAV","s","M3_02","M3","male","2","1.709750","2.924","And then on Sunday morning","","","","","","","","","","","","","",""
"","","","","","html-keyboard-response","21","181689","0.0-21.0","","","","","","","","","","","","467","
            <center>
                <div id=""clip1"" class=""visual"">Clip 1<p>Press ""S""</p></div>
                <div id=""clip2"" class=""visual"">Clip 2<p>Press ""L""</p></div>
            </center>
            <p style=""text-align:center"">Which clip sounds more like someone who was born in Boston?</p>","s","","","","","","","","1","F5_01","M3_02","F5","M3","female","male","Oh my god.","And then on Sunday morning","short","1","0","",""
"","","","","","audio-keyboard-response","22","184730","0.0-22.0","","","","","","","","","","","","null","../audio/M2_01.WAV","null","M2_01","M2","male","1","1.025729","3.900","being in the squallor.","","","","","","","","","","","","","",""
"","","","","","audio-keyboard-response","23","187397","0.0-23.0","","","","","","","","","","","","null","../audio/M2_02.WAV","s","M2_02","M2","male","2","2.665333","3.001","But later on, when I traveled quite a bit,","","","","","","","","","","","","","",""
"","","","","","html-keyboard-response","24","189404","0.0-24.0","","","","","","","","","","","","805","
            <center>
                <div id=""clip1"" class=""visual"">Clip 1<p>Press ""S""</p></div>
                <div id=""clip2"" class=""visual"">Clip 2<p>Press ""L""</p></div>
            </center>
            <p style=""text-align:center"">Which clip sounds more like someone who was born in Boston?</p>","s","","","","","","","","2","M2_01","M2_02","M2","M2","male","male","being in the squallor.","But later on, when I traveled quite a bit,","short","1","0","",""
"","","","","","audio-keyboard-response","25","193067","0.0-25.0","","","","","","","","","","","","null","../audio/F2_01.WAV","null","F2_01","F2","female","1","1.654760","3.021","and then upstairs in her apartment,","","","","","","","","","","","","","",""
"","","","","","audio-keyboard-response","26","194237","0.0-26.0","","","","","","","","","","","","null","../audio/F3_02.WAV","s","F3_02","F3","female","2","1.165760","2.574","as homeless people.","","","","","","","","","","","","","",""
"","","","","","html-keyboard-response","27","196242","0.0-27.0","","","","","","","","","","","","464","
            <center>
                <div id=""clip1"" class=""visual"">Clip 1<p>Press ""S""</p></div>
                <div id=""clip2"" class=""visual"">Clip 2<p>Press ""L""</p></div>
            </center>
            <p style=""text-align:center"">Which clip sounds more like someone who was born in Boston?</p>","s","","","","","","","","3","F2_01","F3_02","F2","F3","female","female","and then upstairs in her apartment,","as homeless people.","short","1","0","",""
"","","","","","audio-keyboard-response","28","200545","0.0-28.0","","","","","","","","","","","","null","../audio/F1_02.WAV","null","F1_02","F1","female","1","2.286385","2.187","clothes or fashion for that matter.","","","","","","","","","","","","","",""
"","","","","","audio-keyboard-response","29","204817","0.0-29.0","","","","","","","","","","","","null","../audio/F3_01.WAV","l","F3_01","F3","female","2","4.267563","1.875","my parents, my two sisters, and my two brothers.","","","","","","","","","","","","","",""
"","","","","","html-keyboard-response","30","206830","0.0-30.0","","","","","","","","","","","","938","
            <center>
                <div id=""clip1"" class=""visual"">Clip 1<p>Press ""S""</p></div>
                <div id=""clip2"" class=""visual"">Clip 2<p>Press ""L""</p></div>
            </center>
            <p style=""text-align:center"">Which clip sounds more like someone who was born in Boston?</p>","l","","","","","","","","4","F1_02","F3_01","F1","F3","female","female","clothes or fashion for that matter.","my parents, my two sisters, and my two brothers.","short","1","0","",""
"","","","","","audio-keyboard-response","31","209837","0.0-31.0","","","","","","","","","","","","null","../audio/M1_02.WAV","null","M1_02","M1","male","1","0.999906","2.000","parallel ways.","","","","","","","","","","","","","",""
"","","","","","audio-keyboard-response","32","210727","0.0-32.0","","","","","","","","","","","","null","../audio/M4_01.WAV","s","M4_01","M4","male","2","0.883969","3.393","yeah last fall","","","","","","","","","","","","","",""
"","","","","","html-keyboard-response","33","212734","0.0-33.0","","","","","","","","","","","","1093","
            <center>
                <div id=""clip1"" class=""visual"">Clip 1<p>Press ""S""</p></div>
                <div id=""clip2"" class=""visual"">Clip 2<p>Press ""L""</p></div>
            </center>
            <p style=""text-align:center"">Which clip sounds more like someone who was born in Boston?</p>","s","","","","","","","","5","M1_02","M4_01","M1","M4","male","male","parallel ways.","yeah last fall","short","1","0","",""
"","","","","","audio-keyboard-response","34","216577","0.0-34.0","","","","","","","","","","","","null","../audio/F4_01.WAV","null","F4_01","F4","female","1","1.835479","2.724","Probably right before I turned six.","","","","","","","","","","","","","",""
"","","","","","audio-keyboard-response","35","218487","0.0-35.0","","","","","","","","","","","","null","../audio/F2_02.WAV","s","F2_02","F2","female","2","1.902969","2.627","And so my mother also","","","","","","","","","","","","","",""
"","","","","","html-keyboard-response","36","220490","0.0-36.0","","","","","","","","","","","","959","
            <center>
                <div id=""clip1"" class=""visual"">Clip 1<p>Press ""S""</p></div>
                <div id=""clip2"" class=""visual"">Clip 2<p>Press ""L""</p></div>
            </center>
            <p style=""text-align:center"">Which clip sounds more like someone who was born in Boston?</p>","s","","","","","","","","6","F4_01","F2_02","F4","F2","female","female","Probably right before I turned six.","And so my mother also","short","1","0","",""
"","","","","","audio-keyboard-response","37","225045","0.0-37.0","","","","","","","","","","","","null","../audio/M4_02.WAV","null","M4_02","M4","male","1","2.538281","2.364","the most intimate group of friends,","","","","","","","","","","","","","",""
"","","","","","audio-keyboard-response","38","227277","0.0-38.0","","","","","","","","","","","","null","../audio/M5_02.WAV","l","M5_02","M5","male","2","2.229229","2.244","Because back in the seventies,","","","","","","","","","","","","","",""
"","","","","","html-keyboard-response","39","229292","0.0-39.0","","","","","","","","","","","","819","
            <center>
                <div id=""clip1"" class=""visual"">Clip 1<p>Press ""S""</p></div>
                <div id=""clip2"" class=""visual"">Clip 2<p>Press ""L""</p></div>
            </center>
            <p style=""text-align:center"">Which clip sounds more like someone who was born in Boston?</p>","l","","","","","","","","7","M4_02","M5_02","M4","M5","male","male","the most intimate group of friends,","Because back in the seventies,","short","1","0","",""
"","","","","","audio-keyboard-response","40","232977","0.0-40.0","","","","","","","","","","","","null","../audio/M3_01.WAV","null","M3_01","M3","male","1","1.659469","2.411","to further my education.","","","","","","","","","","","","","",""
"","","","","","audio-keyboard-response","41","235897","0.0-41.0","","","","","","","","","","","","null","../audio/F4_02.WAV","l","F4_02","F4","female","2","2.916635","2.058","Yeah, a little bit, like elementary school.","","","","","","","","","","","","","",""
"","","","","","html-keyboard-response","42","237904","0.0-42.0","","","","","","","","","","","","1405","
            <center>
                <div id=""clip1"" class=""visual"">Clip 1<p>Press ""S""</p></div>
                <div id=""clip2"" class=""visual"">Clip 2<p>Press ""L""</p></div>
            </center>
            <p style=""text-align:center"">Which clip sounds more like someone who was born in Boston?</p>","l","","","","","","","","8","M3_01","F4_02","M3","F4","male","female","to further my education.","Yeah, a little bit, like elementary school.","short","1","0","",""
"","","","","","audio-keyboard-response","43","241149","0.0-43.0","","","","","","","","","","","","null","../audio/M1_01.WAV","null","M1_01","M1","male","1","1.220375","4.095","being in the medical field,","","","","","","","","","","","","","",""
"","","","","","audio-keyboard-response","44","243017","0.0-44.0","","","","","","","","","","","","null","../audio/M5_01.WAV","s","M5_01","M5","male","2","1.863625","3.755","half an hour, probably fourty five minutes away.","","","","","","","","","","","","","",""
"","","","","","html-keyboard-response","45","245031","0.0-45.0","","","","","","","","","","","","652","
            <center>
                <div id=""clip1"" class=""visual"">Clip 1<p>Press ""S""</p></div>
                <div id=""clip2"" class=""visual"">Clip 2<p>Press ""L""</p></div>
            </center>
            <p style=""text-align:center"">Which clip sounds more like someone who was born in Boston?</p>","s","","","","","","","","9","M1_01","M5_01","M1","M5","male","male","being in the medical field,","half an hour, probably fourty five minutes away.","short","1","0","",""
"","","","","","audio-keyboard-response","46","249769","0.0-46.0","","","","","","","","","","","","null","../audio/F1_01.WAV","null","F1_01","F1","female","1","2.729260","1.832","because of the limited space.","","","","","","","","","","","","","",""
"","","","","","audio-keyboard-response","47","251527","0.0-47.0","","","","","","","","","","","","null","../audio/F5_02.WAV","l","F5_02","F5","female","2","1.750198","2.286","My father also, you know,","","","","","","","","","","","","","",""
"","","","","","html-keyboard-response","48","253535","0.0-48.0","","","","","","","","","","","","482","
            <center>
                <div id=""clip1"" class=""visual"">Clip 1<p>Press ""S""</p></div>
                <div id=""clip2"" class=""visual"">Clip 2<p>Press ""L""</p></div>
            </center>
            <p style=""text-align:center"">Which clip sounds more like someone who was born in Boston?</p>","l","","","","","","","","10","F1_01","F5_02","F1","F5","female","female","because of the limited space.","My father also, you know,","short","1","0","",""
"","","","","","audio-keyboard-response","49","257776","0.0-49.0","","","","","","","","","","","","null","../audio/M5_02.WAV","null","M5_02","M5","male","1","2.229229","2.244","Because back in the seventies,","","","","","","","","","","","","","",""
"","","","","","audio-keyboard-response","50","260317","0.0-50.0","","","","","","","","","","","","null","../audio/M4_02.WAV","s","M4_02","M4","male","2","2.538281","2.364","the most intimate group of friends,","","","","","","","","","","","","","",""
"","","","","","html-keyboard-response","51","262330","0.0-51.0","","","","","","","","","","","","482","
            <center>
                <div id=""clip1"" class=""visual"">Clip 1<p>Press ""S""</p></div>
                <div id=""clip2"" class=""visual"">Clip 2<p>Press ""L""</p></div>
            </center>
            <p style=""text-align:center"">Which clip sounds more like someone who was born in Boston?</p>","s","","","","","","","","11","M5_02","M4_02","M5","M4","male","male","Because back in the seventies,","the most intimate group of friends,","short","1","0","",""
"","","","","","audio-keyboard-response","52","265234","0.0-52.0","","","","","","","","","","","","null","../audio/M4_01.WAV","null","M4_01","M4","male","1","0.883969","3.393","yeah last fall","","","","","","","","","","","","","",""
"","","","","","audio-keyboard-response","53","266274","0.0-53.0","","","","","","","","","","","","null","../audio/M2_01.WAV","l","M2_01","M2","male","2","1.025729","3.900","being in the squallor.","","","","","","","","","","","","","",""
"","","","","","html-keyboard-response","54","268275","0.0-54.0","","","","","","","","","","","","910","
            <center>
                <div id=""clip1"" class=""visual"">Clip 1<p>Press ""S""</p></div>
                <div id=""clip2"" class=""visual"">Clip 2<p>Press ""L""</p></div>
            </center>
            <p style=""text-align:center"">Which clip sounds more like someone who was born in Boston?</p>","l","","","","","","","","12","M4_01","M2_01","M4","M2","male","male","yeah last fall","being in the squallor.","short","1","0","",""
"","","","","","audio-keyboard-response","55","272576","0.0-55.0","","","","","","","","","","","","null","../audio/F1_02.WAV","null","F1_02","F1","female","1","2.286385","2.187","clothes or fashion for that matter.","","","","","","","","","","","","","",""
"","","","","","audio-keyboard-response","56","274484","0.0-56.0","","","","","","","","","","","","null","../audio/F2_02.WAV","l","F2_02","F2","female","2","1.902969","2.627","And so my mother also","","","","","","","","","","","","","",""
"","","","","","html-keyboard-response","57","276490","0.0-57.0","","","","","","","","","","","","541","
            <center>
                <div id=""clip1"" class=""visual"">Clip 1<p>Press ""S""</p></div>
                <div id=""clip2"" class=""visual"">Clip 2<p>Press ""L""</p></div>
            </center>
            <p style=""text-align:center"">Which clip sounds more like someone who was born in Boston?</p>","l","","","","","","","","13","F1_02","F2_02","F1","F2","female","female","clothes or fashion for that matter.","And so my mother also","short","1","0","",""
"","","","","","audio-keyboard-response","58","279726","0.0-58.0","","","","","","","","","","","","null","../audio/M1_01.WAV","null","M1_01","M1","male","1","1.220375","4.095","being in the medical field,","","","","","","","","","","","","","",""
"","","","","","audio-keyboard-response","59","281382","0.0-59.0","","","","","","","","","","","","null","../audio/F2_01.WAV","l","F2_01","F2","female","2","1.654760","3.021","and then upstairs in her apartment,","","","","","","","","","","","","","",""
"","","","","","html-keyboard-response","60","283387","0.0-60.0","","","","","","","","","","","","447","
            <center>
                <div id=""clip1"" class=""visual"">Clip 1<p>Press ""S""</p></div>
                <div id=""clip2"" class=""visual"">Clip 2<p>Press ""L""</p></div>
            </center>
            <p style=""text-align:center"">Which clip sounds more like someone who was born in Boston?</p>","l","","","","","","","","14","M1_01","F2_01","M1","F2","male","female","being in the medical field,","and then upstairs in her apartment,","short","1","0","",""
"","","","","","audio-keyboard-response","61","289674","0.0-61.0","","","","","","","","","","","","null","../audio/F3_01.WAV","null","F3_01","F3","female","1","4.267563","1.875","my parents, my two sisters, and my two brothers.","","","","","","","","","","","","","",""
"","","","","","audio-keyboard-response","62","292345","0.0-62.0","","","","","","","","","","","","null","../audio/M2_02.WAV","s","M2_02","M2","male","2","2.665333","3.001","But later on, when I traveled quite a bit,","","","","","","","","","","","","","",""
"","","","","","html-keyboard-response","63","294349","0.0-63.0","","","","","","","","","","","","599","
            <center>
                <div id=""clip1"" class=""visual"">Clip 1<p>Press ""S""</p></div>
                <div id=""clip2"" class=""visual"">Clip 2<p>Press ""L""</p></div>
            </center>
            <p style=""text-align:center"">Which clip sounds more like someone who was born in Boston?</p>","s","","","","","","","","15","F3_01","M2_02","F3","M2","female","male","my parents, my two sisters, and my two brothers.","But later on, when I traveled quite a bit,","short","1","0","",""
"","","","","","audio-keyboard-response","64","297362","0.0-64.0","","","","","","","","","","","","null","../audio/M1_02.WAV","null","M1_02","M1","male","1","0.999906","2.000","parallel ways.","","","","","","","","","","","","","",""
"","","","","","audio-keyboard-response","65","298542","0.0-65.0","","","","","","","","","","","","null","../audio/F3_02.WAV","null","F3_02","F3","female","2","1.165760","2.574","as homeless people.","","","","","","","","","","","","","",""
"","","","","","html-keyboard-response","66","300548","0.0-66.0","","","","","","","","","","","","null","
            <center>
                <div id=""clip1"" class=""visual"">Clip 1<p>Press ""S""</p></div>
                <div id=""clip2"" class=""visual"">Clip 2<p>Press ""L""</p></div>
            </center>
            <p style=""text-align:center"">Which clip sounds more like someone who was born in Boston?</p>","null","","","","","","","","16","M1_02","F3_02","M1","F3","male","female","parallel ways.","as homeless people.","short","1","0","",""
"","","","","","audio-keyboard-response","67","304310","0.0-67.0","","","","","","","","","","","","null","../audio/F5_02.WAV","null","F5_02","F5","female","1","1.750198","2.286","My father also, you know,","","","","","","","","","","","","","",""
"","","","","","audio-keyboard-response","68","306177","0.0-68.0","","","","","","","","","","","","null","../audio/M5_01.WAV","s","M5_01","M5","male","2","1.863625","3.755","half an hour, probably fourty five minutes away.","","","","","","","","","","","","","",""
"","","","","","html-keyboard-response","69","308187","0.0-69.0","","","","","","","","","","","","603","
            <center>
                <div id=""clip1"" class=""visual"">Clip 1<p>Press ""S""</p></div>
                <div id=""clip2"" class=""visual"">Clip 2<p>Press ""L""</p></div>
            </center>
            <p style=""text-align:center"">Which clip sounds more like someone who was born in Boston?</p>","s","","","","","","","","17","F5_02","M5_01","F5","M5","female","male","My father also, you know,","half an hour, probably fourty five minutes away.","short","1","0","",""
"","","","","","audio-keyboard-response","70","313109","0.0-70.0","","","","","","","","","","","","null","../audio/F4_02.WAV","null","F4_02","F4","female","1","2.916635","2.058","Yeah, a little bit, like elementary school.","","","","","","","","","","","","","",""
"","","","","","audio-keyboard-response","71","315842","0.0-71.0","","","","","","","","","","","","null","../audio/F1_01.WAV","s","F1_01","F1","female","2","2.729260","1.832","because of the limited space.","","","","","","","","","","","","","",""
"","","","","","html-keyboard-response","72","317852","0.0-72.0","","","","","","","","","","","","982","
            <center>
                <div id=""clip1"" class=""visual"">Clip 1<p>Press ""S""</p></div>
                <div id=""clip2"" class=""visual"">Clip 2<p>Press ""L""</p></div>
            </center>
            <p style=""text-align:center"">Which clip sounds more like someone who was born in Boston?</p>","s","","","","","","","","18","F4_02","F1_01","F4","F1","female","female","Yeah, a little bit, like elementary school.","because of the limited space.","short","1","0","",""
"","","","","","audio-keyboard-response","73","321709","0.0-73.0","","","","","","","","","","","","null","../audio/F4_01.WAV","null","F4_01","F4","female","1","1.835479","2.724","Probably right before I turned six.","","","","","","","","","","","","","",""
"","","","","","audio-keyboard-response","74","323377","0.0-74.0","","","","","","","","","","","","null","../audio/M3_01.WAV","s","M3_01","M3","male","2","1.659469","2.411","to further my education.","","","","","","","","","","","","","",""
"","","","","","html-keyboard-response","75","325391","0.0-75.0","","","","","","","","","","","","359","
            <center>
                <div id=""clip1"" class=""visual"">Clip 1<p>Press ""S""</p></div>
                <div id=""clip2"" class=""visual"">Clip 2<p>Press ""L""</p></div>
            </center>
            <p style=""text-align:center"">Which clip sounds more like someone who was born in Boston?</p>","s","","","","","","","","19","F4_01","M3_01","F4","M3","female","male","Probably right before I turned six.","to further my education.","short","1","0","",""
"","","","","","audio-keyboard-response","76","328235","0.0-76.0","","","","","","","","","","","","null","../audio/F5_01.WAV","null","F5_01","F5","female","1","0.835490","3.592","Oh my god.","","","","","","","","","","","","","",""
"","","","","","audio-keyboard-response","77","329947","0.0-77.0","","","","","","","","","","","","null","../audio/M3_02.WAV","s","M3_02","M3","male","2","1.709750","2.924","And then on Sunday morning","","","","","","","","","","","","","",""
"","","","","","html-keyboard-response","78","331949","0.0-78.0","","","","","","","","","","","","310","
            <center>
                <div id=""clip1"" class=""visual"">Clip 1<p>Press ""S""</p></div>
                <div id=""clip2"" class=""visual"">Clip 2<p>Press ""L""</p></div>
            </center>
            <p style=""text-align:center"">Which clip sounds more like someone who was born in Boston?</p>","s","","","","","","","","20","F5_01","M3_02","F5","M3","female","male","Oh my god.","And then on Sunday morning","short","1","0","",""
"","","","","","audio-keyboard-response","79","335824","0.0-79.0","","","","","","","","","","","","null","../audio/M5_01.WAV","null","M5_01","M5","male","1","1.863625","3.755","half an hour, probably fourty five minutes away.","","","","","","","","","","","","","",""
"","","","","","audio-keyboard-response","80","337669","0.0-80.0","","","","","","","","","","","","null","../audio/F4_01.WAV","l","F4_01","F4","female","2","1.835479","2.724","Probably right before I turned six.","","","","","","","","","","","","","",""
"","","","","","html-keyboard-response","81","339671","0.0-81.0","","","","","","","","","","","","284","
            <center>
                <div id=""clip1"" class=""visual"">Clip 1<p>Press ""S""</p></div>
                <div id=""clip2"" class=""visual"">Clip 2<p>Press ""L""</p></div>
            </center>
            <p style=""text-align:center"">Which clip sounds more like someone who was born in Boston?</p>","l","","","","","","","","1","M5_01","F4_01","M5","F4","male","female","half an hour, probably fourty five minutes away.","Probably right before I turned six.","short","2","0","",""
"","","","","","audio-keyboard-response","82","344229","0.0-82.0","","","","","","","","","","","","null","../audio/M4_02.WAV","null","M4_02","M4","male","1","2.538281","2.364","the most intimate group of friends,","","","","","","","","","","","","","",""
"","","","","","audio-keyboard-response","83","348501","0.0-83.0","","","","","","","","","","","","null","../audio/F3_01.WAV","l","F3_01","F3","female","2","4.267563","1.875","my parents, my two sisters, and my two brothers.","","","","","","","","","","","","","",""
"","","","","","html-keyboard-response","84","350514","0.0-84.0","","","","","","","","","","","","417","
            <center>
                <div id=""clip1"" class=""visual"">Clip 1<p>Press ""S""</p></div>
                <div id=""clip2"" class=""visual"">Clip 2<p>Press ""L""</p></div>
            </center>
            <p style=""text-align:center"">Which clip sounds more like someone who was born in Boston?</p>","l","","","","","","","","2","M4_02","F3_01","M4","F3","male","female","the most intimate group of friends,","my parents, my two sisters, and my two brothers.","short","2","0","",""
"","","","","","audio-keyboard-response","85","355197","0.0-85.0","","","","","","","","","","","","null","../audio/M2_02.WAV","null","M2_02","M2","male","1","2.665333","3.001","But later on, when I traveled quite a bit,","","","","","","","","","","","","","",""
"","","","","","audio-keyboard-response","86","358117","0.0-86.0","","","","","","","","","","","","null","../audio/F4_02.WAV","l","F4_02","F4","female","2","2.916635","2.058","Yeah, a little bit, like elementary school.","","","","","","","","","","","","","",""
"","","","","","html-keyboard-response","87","360121","0.0-87.0","","","","","","","","","","","","435","
            <center>
                <div id=""clip1"" class=""visual"">Clip 1<p>Press ""S""</p></div>
                <div id=""clip2"" class=""visual"">Clip 2<p>Press ""L""</p></div>
            </center>
            <p style=""text-align:center"">Which clip sounds more like someone who was born in Boston?</p>","l","","","","","","","","3","M2_02","F4_02","M2","F4","male","female","But later on, when I traveled quite a bit,","Yeah, a little bit, like elementary school.","short","2","0","",""
"","","","","","audio-keyboard-response","88","363893","0.0-88.0","","","","","","","","","","","","null","../audio/F5_02.WAV","null","F5_02","F5","female","1","1.750198","2.286","My father also, you know,","","","","","","","","","","","","","",""
"","","","","","audio-keyboard-response","89","364744","0.0-89.0","","","","","","","","","","","","null","../audio/F5_01.WAV","l","F5_01","F5","female","2","0.835490","3.592","Oh my god.","","","","","","","","","","","","","",""
"","","","","","html-keyboard-response","90","366760","0.0-90.0","","","","","","","","","","","","404","
            <center>
                <div id=""clip1"" class=""visual"">Clip 1<p>Press ""S""</p></div>
                <div id=""clip2"" class=""visual"">Clip 2<p>Press ""L""</p></div>
            </center>
            <p style=""text-align:center"">Which clip sounds more like someone who was born in Boston?</p>","l","","","","","","","","4","F5_02","F5_01","F5","F5","female","female","My father also, you know,","Oh my god.","short","2","0","",""
"","","","","","audio-keyboard-response","91","370436","0.0-91.0","","","","","","","","","","","","null","../audio/F2_01.WAV","null","F2_01","F2","female","1","1.654760","3.021","and then upstairs in her apartment,","","","","","","","","","","","","","",""
"","","","","","audio-keyboard-response","92","372097","0.0-92.0","","","","","","","","","","","","null","../audio/M3_01.WAV","s","M3_01","M3","male","2","1.659469","2.411","to further my education.","","","","","","","","","","","","","",""
"","","","","","html-keyboard-response","93","374107","0.0-93.0","","","","","","","","","","","","645","
            <center>
                <div id=""clip1"" class=""visual"">Clip 1<p>Press ""S""</p></div>
                <div id=""clip2"" class=""visual"">Clip 2<p>Press ""L""</p></div>
            </center>
            <p style=""text-align:center"">Which clip sounds more like someone who was born in Boston?</p>","s","","","","","","","","5","F2_01","M3_01","F2","M3","female","male","and then upstairs in her apartment,","to further my education.","short","2","0","",""
"","","","","","audio-keyboard-response","94","378413","0.0-94.0","","","","","","","","","","","","null","../audio/F1_02.WAV","null","F1_02","F1","female","1","2.286385","2.187","clothes or fashion for that matter.","","","","","","","","","","","","","",""
"","","","","","audio-keyboard-response","95","380127","0.0-95.0","","","","","","","","","","","","null","../audio/M3_02.WAV","s","M3_02","M3","male","2","1.709750","2.924","And then on Sunday morning","","","","","","","","","","","","","",""
"","","","","","html-keyboard-response","96","382132","0.0-96.0","","","","","","","","","","","","905","
            <center>
                <div id=""clip1"" class=""visual"">Clip 1<p>Press ""S""</p></div>
                <div id=""clip2"" class=""visual"">Clip 2<p>Press ""L""</p></div>
            </center>
            <p style=""text-align:center"">Which clip sounds more like someone who was born in Boston?</p>","s","","","","","","","","6","F1_02","M3_02","F1","M3","female","male","clothes or fashion for that matter.","And then on Sunday morning","short","2","0","",""
"","","","","","audio-keyboard-response","97","386375","0.0-97.0","","","","","","","","","","","","null","../audio/M5_02.WAV","null","M5_02","M5","male","1","2.229229","2.244","Because back in the seventies,","","","","","","","","","","","","","",""
"","","","","","audio-keyboard-response","98","387377","0.0-98.0","","","","","","","","","","","","null","../audio/M1_02.WAV","s","M1_02","M1","male","2","0.999906","2.000","parallel ways.","","","","","","","","","","","","","",""
"","","","","","html-keyboard-response","99","389386","0.0-99.0","","","","","","","","","","","","319","
            <center>
                <div id=""clip1"" class=""visual"">Clip 1<p>Press ""S""</p></div>
                <div id=""clip2"" class=""visual"">Clip 2<p>Press ""L""</p></div>
            </center>
            <p style=""text-align:center"">Which clip sounds more like someone who was born in Boston?</p>","s","","","","","","","","7","M5_02","M1_02","M5","M1","male","male","Because back in the seventies,","parallel ways.","short","2","0","",""
"","","","","","audio-keyboard-response","100","392630","0.0-100.0","","","","","","","","","","","","null","../audio/M1_01.WAV","null","M1_01","M1","male","1","1.220375","4.095","being in the medical field,","","","","","","","","","","","","","",""
"","","","","","audio-keyboard-response","101","393515","0.0-101.0","","","","","","","","","","","","null","../audio/M4_01.WAV","s","M4_01","M4","male","2","0.883969","3.393","yeah last fall","","","","","","","","","","","","","",""
"","","","","","html-keyboard-response","102","395519","0.0-102.0","","","","","","","","","","","","576","
            <center>
                <div id=""clip1"" class=""visual"">Clip 1<p>Press ""S""</p></div>
                <div id=""clip2"" class=""visual"">Clip 2<p>Press ""L""</p></div>
            </center>
            <p style=""text-align:center"">Which clip sounds more like someone who was born in Boston?</p>","s","","","","","","","","8","M1_01","M4_01","M1","M4","male","male","being in the medical field,","yeah last fall","short","2","0","",""
"","","","","","audio-keyboard-response","103","398699","0.0-103.0","","","","","","","","","","","","null","../audio/F3_02.WAV","null","F3_02","F3","female","1","1.165760","2.574","as homeless people.","","","","","","","","","","","","","",""
"","","","","","audio-keyboard-response","104","400607","0.0-104.0","","","","","","","","","","","","null","../audio/F2_02.WAV","l","F2_02","F2","female","2","1.902969","2.627","And so my mother also","","","","","","","","","","","","","",""
"","","","","","html-keyboard-response","105","402611","0.0-105.0","","","","","","","","","","","","314","
            <center>
                <div id=""clip1"" class=""visual"">Clip 1<p>Press ""S""</p></div>
                <div id=""clip2"" class=""visual"">Clip 2<p>Press ""L""</p></div>
            </center>
            <p style=""text-align:center"">Which clip sounds more like someone who was born in Boston?</p>","l","","","","","","","","9","F3_02","F2_02","F3","F2","female","female","as homeless people.","And so my mother also","short","2","0","",""
"","","","","","audio-keyboard-response","106","405653","0.0-106.0","","","","","","","","","","","","null","../audio/M2_01.WAV","null","M2_01","M2","male","1","1.025729","3.900","being in the squallor.","","","","","","","","","","","","","",""
"","","","","","audio-keyboard-response","107","408387","0.0-107.0","","","","","","","","","","","","null","../audio/F1_01.WAV","s","F1_01","F1","female","2","2.729260","1.832","because of the limited space.","","","","","","","","","","","","","",""
"","","","","","html-keyboard-response","108","410392","0.0-108.0","","","","","","","","","","","","334","
            <center>
                <div id=""clip1"" class=""visual"">Clip 1<p>Press ""S""</p></div>
                <div id=""clip2"" class=""visual"">Clip 2<p>Press ""L""</p></div>
            </center>
            <p style=""text-align:center"">Which clip sounds more like someone who was born in Boston?</p>","s","","","","","","","","10","M2_01","F1_01","M2","F1","male","female","being in the squallor.","because of the limited space.","short","2","0","",""
"","","","","","audio-keyboard-response","109","415068","0.0-109.0","","","","","","","","","","","","null","../audio/M2_02.WAV","null","M2_02","M2","male","1","2.665333","3.001","But later on, when I traveled quite a bit,","","","","","","","","","","","","","",""
"","","","","","audio-keyboard-response","110","417987","0.0-110.0","","","","","","","","","","","","null","../audio/F4_02.WAV","l","F4_02","F4","female","2","2.916635","2.058","Yeah, a little bit, like elementary school.","","","","","","","","","","","","","",""
"","","","","","html-keyboard-response","111","419999","0.0-111.0","","","","","","","","","","","","565","
            <center>
                <div id=""clip1"" class=""visual"">Clip 1<p>Press ""S""</p></div>
                <div id=""clip2"" class=""visual"">Clip 2<p>Press ""L""</p></div>
            </center>
            <p style=""text-align:center"">Which clip sounds more like someone who was born in Boston?</p>","l","","","","","","","","11","M2_02","F4_02","M2","F4","male","female","But later on, when I traveled quite a bit,","Yeah, a little bit, like elementary school.","short","2","0","",""
"","","","","","audio-keyboard-response","112","423731","0.0-112.0","","","","","","","","","","","","null","../audio/M3_02.WAV","null","M3_02","M3","male","1","1.709750","2.924","And then on Sunday morning","","","","","","","","","","","","","",""
"","","","","","audio-keyboard-response","113","425395","0.0-113.0","","","","","","","","","","","","null","../audio/M3_01.WAV","s","M3_01","M3","male","2","1.659469","2.411","to further my education.","","","","","","","","","","","","","",""
"","","","","","html-keyboard-response","114","427400","0.0-114.0","","","","","","","","","","","","377","
            <center>
                <div id=""clip1"" class=""visual"">Clip 1<p>Press ""S""</p></div>
                <div id=""clip2"" class=""visual"">Clip 2<p>Press ""L""</p></div>
            </center>
            <p style=""text-align:center"">Which clip sounds more like someone who was born in Boston?</p>","s","","","","","","","","12","M3_02","M3_01","M3","M3","male","male","And then on Sunday morning","to further my education.","short","2","0","",""
"","","","","","audio-keyboard-response","115","431323","0.0-115.0","","","","","","","","","","","","null","../audio/F2_02.WAV","null","F2_02","F2","female","1","1.902969","2.627","And so my mother also","","","","","","","","","","","","","",""
"","","","","","audio-keyboard-response","116","433195","0.0-116.0","","","","","","","","","","","","null","../audio/M5_01.WAV","s","M5_01","M5","male","2","1.863625","3.755","half an hour, probably fourty five minutes away.","","","","","","","","","","","","","",""
"","","","","","html-keyboard-response","117","435204","0.0-117.0","","","","","","","","","","","","481","
            <center>
                <div id=""clip1"" class=""visual"">Clip 1<p>Press ""S""</p></div>
                <div id=""clip2"" class=""visual"">Clip 2<p>Press ""L""</p></div>
            </center>
            <p style=""text-align:center"">Which clip sounds more like someone who was born in Boston?</p>","s","","","","","","","","13","F2_02","M5_01","F2","M5","female","male","And so my mother also","half an hour, probably fourty five minutes away.","short","2","0","",""
"","","","","","audio-keyboard-response","118","441478","0.0-118.0","","","","","","","","","","","","null","../audio/F3_01.WAV","null","F3_01","F3","female","1","4.267563","1.875","my parents, my two sisters, and my two brothers.","","","","","","","","","","","","","",""
"","","","","","audio-keyboard-response","119","442647","0.0-119.0","","","","","","","","","","","","null","../audio/F3_02.WAV","s","F3_02","F3","female","2","1.165760","2.574","as homeless people.","","","","","","","","","","","","","",""
"","","","","","html-keyboard-response","120","444653","0.0-120.0","","","","","","","","","","","","525","
            <center>
                <div id=""clip1"" class=""visual"">Clip 1<p>Press ""S""</p></div>
                <div id=""clip2"" class=""visual"">Clip 2<p>Press ""L""</p></div>
            </center>
            <p style=""text-align:center"">Which clip sounds more like someone who was born in Boston?</p>","s","","","","","","","","14","F3_01","F3_02","F3","F3","female","female","my parents, my two sisters, and my two brothers.","as homeless people.","short","2","0","",""
"","","","","","audio-keyboard-response","121","447512","0.0-121.0","","","","","","","","","","","","null","../audio/F5_01.WAV","null","F5_01","F5","female","1","0.835490","3.592","Oh my god.","","","","","","","","","","","","","",""
"","","","","","audio-keyboard-response","122","449746","0.0-122.0","","","","","","","","","","","","null","../audio/M5_02.WAV","l","M5_02","M5","male","2","2.229229","2.244","Because back in the seventies,","","","","","","","","","","","","","",""
"","","","","","html-keyboard-response","123","451750","0.0-123.0","","","","","","","","","","","","404","
            <center>
                <div id=""clip1"" class=""visual"">Clip 1<p>Press ""S""</p></div>
                <div id=""clip2"" class=""visual"">Clip 2<p>Press ""L""</p></div>
            </center>
            <p style=""text-align:center"">Which clip sounds more like someone who was born in Boston?</p>","l","","","","","","","","15","F5_01","M5_02","F5","M5","female","male","Oh my god.","Because back in the seventies,","short","2","0","",""
"","","","","","audio-keyboard-response","124","456061","0.0-124.0","","","","","","","","","","","","null","../audio/F1_02.WAV","null","F1_02","F1","female","1","2.286385","2.187","clothes or fashion for that matter.","","","","","","","","","","","","","",""
"","","","","","audio-keyboard-response","125","457067","0.0-125.0","","","","","","","","","","","","null","../audio/M1_02.WAV","l","M1_02","M1","male","2","0.999906","2.000","parallel ways.","","","","","","","","","","","","","",""
"","","","","","html-keyboard-response","126","459079","0.0-126.0","","","","","","","","","","","","640","
            <center>
                <div id=""clip1"" class=""visual"">Clip 1<p>Press ""S""</p></div>
                <div id=""clip2"" class=""visual"">Clip 2<p>Press ""L""</p></div>
            </center>
            <p style=""text-align:center"">Which clip sounds more like someone who was born in Boston?</p>","l","","","","","","","","16","F1_02","M1_02","F1","M1","female","male","clothes or fashion for that matter.","parallel ways.","short","2","0","",""
"","","","","","audio-keyboard-response","127","462318","0.0-127.0","","","","","","","","","","","","null","../audio/M1_01.WAV","null","M1_01","M1","male","1","1.220375","4.095","being in the medical field,","","","","","","","","","","","","","",""
"","","","","","audio-keyboard-response","128","465057","0.0-128.0","","","","","","","","","","","","null","../audio/F1_01.WAV","s","F1_01","F1","female","2","2.729260","1.832","because of the limited space.","","","","","","","","","","","","","",""
"","","","","","html-keyboard-response","129","467064","0.0-129.0","","","","","","","","","","","","961","
            <center>
                <div id=""clip1"" class=""visual"">Clip 1<p>Press ""S""</p></div>
                <div id=""clip2"" class=""visual"">Clip 2<p>Press ""L""</p></div>
            </center>
            <p style=""text-align:center"">Which clip sounds more like someone who was born in Boston?</p>","s","","","","","","","","17","M1_01","F1_01","M1","F1","male","female","being in the medical field,","because of the limited space.","short","2","0","",""
"","","","","","audio-keyboard-response","130","469965","0.0-130.0","","","","","","","","","","","","null","../audio/M4_01.WAV","null","M4_01","M4","male","1","0.883969","3.393","yeah last fall","","","","","","","","","","","","","",""
"","","","","","audio-keyboard-response","131","471624","0.0-131.0","","","","","","","","","","","","null","../audio/F2_01.WAV","l","F2_01","F2","female","2","1.654760","3.021","and then upstairs in her apartment,","","","","","","","","","","","","","",""
"","","","","","html-keyboard-response","132","473633","0.0-132.0","","","","","","","","","","","","316","
            <center>
                <div id=""clip1"" class=""visual"">Clip 1<p>Press ""S""</p></div>
                <div id=""clip2"" class=""visual"">Clip 2<p>Press ""L""</p></div>
            </center>
            <p style=""text-align:center"">Which clip sounds more like someone who was born in Boston?</p>","l","","","","","","","","18","M4_01","F2_01","M4","F2","male","female","yeah last fall","and then upstairs in her apartment,","short","2","0","",""
"","","","","","audio-keyboard-response","133","477400","0.0-133.0","","","","","","","","","","","","null","../audio/F5_02.WAV","null","F5_02","F5","female","1","1.750198","2.286","My father also, you know,","","","","","","","","","","","","","",""
"","","","","","audio-keyboard-response","134","479237","0.0-134.0","","","","","","","","","","","","null","../audio/F4_01.WAV","l","F4_01","F4","female","2","1.835479","2.724","Probably right before I turned six.","","","","","","","","","","","","","",""
"","","","","","html-keyboard-response","135","481252","0.0-135.0","","","","","","","","","","","","284","
            <center>
                <div id=""clip1"" class=""visual"">Clip 1<p>Press ""S""</p></div>
                <div id=""clip2"" class=""visual"">Clip 2<p>Press ""L""</p></div>
            </center>
            <p style=""text-align:center"">Which clip sounds more like someone who was born in Boston?</p>","l","","","","","","","","19","F5_02","F4_01","F5","F4","female","female","My father also, you know,","Probably right before I turned six.","short","2","0","",""
"","","","","","audio-keyboard-response","136","485803","0.0-136.0","","","","","","","","","","","","null","../audio/M4_02.WAV","null","M4_02","M4","male","1","2.538281","2.364","the most intimate group of friends,","","","","","","","","","","","","","",""
"","","","","","audio-keyboard-response","137","486834","0.0-137.0","","","","","","","","","","","","null","../audio/M2_01.WAV","s","M2_01","M2","male","2","1.025729","3.900","being in the squallor.","","","","","","","","","","","","","",""
"","","","","","html-keyboard-response","138","488844","0.0-138.0","","","","","","","","","","","","448","
            <center>
                <div id=""clip1"" class=""visual"">Clip 1<p>Press ""S""</p></div>
                <div id=""clip2"" class=""visual"">Clip 2<p>Press ""L""</p></div>
            </center>
            <p style=""text-align:center"">Which clip sounds more like someone who was born in Boston?</p>","s","","","","","","","","20","M4_02","M2_01","M4","M2","male","male","the most intimate group of friends,","being in the squallor.","short","2","0","",""
"","","","","","audio-keyboard-response","139","491691","0.0-139.0","","","","","","","","","","","","null","../audio/F5_01.WAV","null","F5_01","F5","female","1","0.835490","3.592","Oh my god.","","","","","","","","","","","","","",""
"","","","","","audio-keyboard-response","140","492577","0.0-140.0","","","","","","","","","","","","null","../audio/M4_01.WAV","s","M4_01","M4","male","2","0.883969","3.393","yeah last fall","","","","","","","","","","","","","",""
"","","","","","html-keyboard-response","141","494593","0.0-141.0","","","","","","","","","","","","361","
            <center>
                <div id=""clip1"" class=""visual"">Clip 1<p>Press ""S""</p></div>
                <div id=""clip2"" class=""visual"">Clip 2<p>Press ""L""</p></div>
            </center>
            <p style=""text-align:center"">Which clip sounds more like someone who was born in Boston?</p>","s","","","","","","","","1","F5_01","M4_01","F5","M4","female","male","Oh my god.","yeah last fall","short","3","0","",""
"","","","","","audio-keyboard-response","142","497774","0.0-142.0","","","","","","","","","","","","null","../audio/F3_02.WAV","null","F3_02","F3","female","1","1.165760","2.574","as homeless people.","","","","","","","","","","","","","",""
"","","","","","audio-keyboard-response","143","498777","0.0-143.0","","","","","","","","","","","","null","../audio/M1_02.WAV","s","M1_02","M1","male","2","0.999906","2.000","parallel ways.","","","","","","","","","","","","","",""
"","","","","","html-keyboard-response","144","500793","0.0-144.0","","","","","","","","","","","","1009","
            <center>
                <div id=""clip1"" class=""visual"">Clip 1<p>Press ""S""</p></div>
                <div id=""clip2"" class=""visual"">Clip 2<p>Press ""L""</p></div>
            </center>
            <p style=""text-align:center"">Which clip sounds more like someone who was born in Boston?</p>","s","","","","","","","","2","F3_02","M1_02","F3","M1","female","male","as homeless people.","parallel ways.","short","3","0","",""
"","","","","","audio-keyboard-response","145","504704","0.0-145.0","","","","","","","","","","","","null","../audio/F2_02.WAV","null","F2_02","F2","female","1","1.902969","2.627","And so my mother also","","","","","","","","","","","","","",""
"","","","","","audio-keyboard-response","146","507630","0.0-146.0","","","","","","","","","","","","null","../audio/F4_02.WAV","s","F4_02","F4","female","2","2.916635","2.058","Yeah, a little bit, like elementary school.","","","","","","","","","","","","","",""
"","","","","","html-keyboard-response","147","509646","0.0-147.0","","","","","","","","","","","","379","
            <center>
                <div id=""clip1"" class=""visual"">Clip 1<p>Press ""S""</p></div>
                <div id=""clip2"" class=""visual"">Clip 2<p>Press ""L""</p></div>
            </center>
            <p style=""text-align:center"">Which clip sounds more like someone who was born in Boston?</p>","s","","","","","","","","3","F2_02","F4_02","F2","F4","female","female","And so my mother also","Yeah, a little bit, like elementary school.","short","3","0","",""
"","","","","","audio-keyboard-response","148","512695","0.0-148.0","","","","","","","","","","","","null","../audio/M2_01.WAV","null","M2_01","M2","male","1","1.025729","3.900","being in the squallor.","","","","","","","","","","","","","",""
"","","","","","audio-keyboard-response","149","515237","0.0-149.0","","","","","","","","","","","","null","../audio/M4_02.WAV","s","M4_02","M4","male","2","2.538281","2.364","the most intimate group of friends,","","","","","","","","","","","","","",""
"","","","","","html-keyboard-response","150","517240","0.0-150.0","","","","","","","","","","","","292","
            <center>
                <div id=""clip1"" class=""visual"">Clip 1<p>Press ""S""</p></div>
                <div id=""clip2"" class=""visual"">Clip 2<p>Press ""L""</p></div>
            </center>
            <p style=""text-align:center"">Which clip sounds more like someone who was born in Boston?</p>","s","","","","","","","","4","M2_01","M4_02","M2","M4","male","male","being in the squallor.","the most intimate group of friends,","short","3","0","",""
"","","","","","audio-keyboard-response","151","523519","0.0-151.0","","","","","","","","","","","","null","../audio/F3_01.WAV","null","F3_01","F3","female","1","4.267563","1.875","my parents, my two sisters, and my two brothers.","","","","","","","","","","","","","",""
"","","","","","audio-keyboard-response","152","525183","0.0-152.0","","","","","","","","","","","","null","../audio/M3_01.WAV","s","M3_01","M3","male","2","1.659469","2.411","to further my education.","","","","","","","","","","","","","",""
"","","","","","html-keyboard-response","153","527190","0.0-153.0","","","","","","","","","","","","571","
            <center>
                <div id=""clip1"" class=""visual"">Clip 1<p>Press ""S""</p></div>
                <div id=""clip2"" class=""visual"">Clip 2<p>Press ""L""</p></div>
            </center>
            <p style=""text-align:center"">Which clip sounds more like someone who was born in Boston?</p>","s","","","","","","","","5","F3_01","M3_01","F3","M3","female","male","my parents, my two sisters, and my two brothers.","to further my education.","short","3","0","",""
"","","","","","audio-keyboard-response","154","530417","0.0-154.0","","","","","","","","","","","","null","../audio/M1_01.WAV","null","M1_01","M1","male","1","1.220375","4.095","being in the medical field,","","","","","","","","","","","","","",""
"","","","","","audio-keyboard-response","155","532177","0.0-155.0","","","","","","","","","","","","null","../audio/F5_02.WAV","l","F5_02","F5","female","2","1.750198","2.286","My father also, you know,","","","","","","","","","","","","","",""
"","","","","","html-keyboard-response","156","534183","0.0-156.0","","","","","","","","","","","","1690","
            <center>
                <div id=""clip1"" class=""visual"">Clip 1<p>Press ""S""</p></div>
                <div id=""clip2"" class=""visual"">Clip 2<p>Press ""L""</p></div>
            </center>
            <p style=""text-align:center"">Which clip sounds more like someone who was born in Boston?</p>","l","","","","","","","","6","M1_01","F5_02","M1","F5","male","female","being in the medical field,","My father also, you know,","short","3","0","",""
"","","","","","audio-keyboard-response","157","538860","0.0-157.0","","","","","","","","","","","","null","../audio/M2_02.WAV","null","M2_02","M2","male","1","2.665333","3.001","But later on, when I traveled quite a bit,","","","","","","","","","","","","","",""
"","","","","","audio-keyboard-response","158","540574","0.0-158.0","","","","","","","","","","","","null","../audio/M3_02.WAV","s","M3_02","M3","male","2","1.709750","2.924","And then on Sunday morning","","","","","","","","","","","","","",""
"","","","","","html-keyboard-response","159","542590","0.0-159.0","","","","","","","","","","","","1291","
            <center>
                <div id=""clip1"" class=""visual"">Clip 1<p>Press ""S""</p></div>
                <div id=""clip2"" class=""visual"">Clip 2<p>Press ""L""</p></div>
            </center>
            <p style=""text-align:center"">Which clip sounds more like someone who was born in Boston?</p>","s","","","","","","","","7","M2_02","M3_02","M2","M3","male","male","But later on, when I traveled quite a bit,","And then on Sunday morning","short","3","0","",""
"","","","","","audio-keyboard-response","160","546898","0.0-160.0","","","","","","","","","","","","null","../audio/F1_02.WAV","null","F1_02","F1","female","1","2.286385","2.187","clothes or fashion for that matter.","","","","","","","","","","","","","",""
"","","","","","audio-keyboard-response","161","548557","0.0-161.0","","","","","","","","","","","","null","../audio/F2_01.WAV","l","F2_01","F2","female","2","1.654760","3.021","and then upstairs in her apartment,","","","","","","","","","","","","","",""
"","","","","","html-keyboard-response","162","550571","0.0-162.0","","","","","","","","","","","","1278","
            <center>
                <div id=""clip1"" class=""visual"">Clip 1<p>Press ""S""</p></div>
                <div id=""clip2"" class=""visual"">Clip 2<p>Press ""L""</p></div>
            </center>
            <p style=""text-align:center"">Which clip sounds more like someone who was born in Boston?</p>","l","","","","","","","","8","F1_02","F2_01","F1","F2","female","female","clothes or fashion for that matter.","and then upstairs in her apartment,","short","3","0","",""
"","","","","","audio-keyboard-response","163","555320","0.0-163.0","","","","","","","","","","","","null","../audio/F1_01.WAV","null","F1_01","F1","female","1","2.729260","1.832","because of the limited space.","","","","","","","","","","","","","",""
"","","","","","audio-keyboard-response","164","557157","0.0-164.0","","","","","","","","","","","","null","../audio/F4_01.WAV","l","F4_01","F4","female","2","1.835479","2.724","Probably right before I turned six.","","","","","","","","","","","","","",""
"","","","","","html-keyboard-response","165","559161","0.0-165.0","","","","","","","","","","","","368","
            <center>
                <div id=""clip1"" class=""visual"">Clip 1<p>Press ""S""</p></div>
                <div id=""clip2"" class=""visual"">Clip 2<p>Press ""L""</p></div>
            </center>
            <p style=""text-align:center"">Which clip sounds more like someone who was born in Boston?</p>","l","","","","","","","","9","F1_01","F4_01","F1","F4","female","female","because of the limited space.","Probably right before I turned six.","short","3","0","",""
"","","","","","audio-keyboard-response","166","563047","0.0-166.0","","","","","","","","","","","","null","../audio/M5_01.WAV","null","M5_01","M5","male","1","1.863625","3.755","half an hour, probably fourty five minutes away.","","","","","","","","","","","","","",""
"","","","","","audio-keyboard-response","167","565287","0.0-167.0","","","","","","","","","","","","null","../audio/M5_02.WAV","l","M5_02","M5","male","2","2.229229","2.244","Because back in the seventies,","","","","","","","","","","","","","",""
"","","","","","html-keyboard-response","168","567296","0.0-168.0","","","","","","","","","","","","435","
            <center>
                <div id=""clip1"" class=""visual"">Clip 1<p>Press ""S""</p></div>
                <div id=""clip2"" class=""visual"">Clip 2<p>Press ""L""</p></div>
            </center>
            <p style=""text-align:center"">Which clip sounds more like someone who was born in Boston?</p>","l","","","","","","","","10","M5_01","M5_02","M5","M5","male","male","half an hour, probably fourty five minutes away.","Because back in the seventies,","short","3","0","",""
"","","","","","audio-keyboard-response","169","570151","0.0-169.0","","","","","","","","","","","","null","../audio/F5_01.WAV","null","F5_01","F5","female","1","0.835490","3.592","Oh my god.","","","","","","","","","","","","","",""
"","","","","","audio-keyboard-response","170","571155","0.0-170.0","","","","","","","","","","","","null","../audio/M1_02.WAV","s","M1_02","M1","male","2","0.999906","2.000","parallel ways.","","","","","","","","","","","","","",""
"","","","","","html-keyboard-response","171","573163","0.0-171.0","","","","","","","","","","","","1530","
            <center>
                <div id=""clip1"" class=""visual"">Clip 1<p>Press ""S""</p></div>
                <div id=""clip2"" class=""visual"">Clip 2<p>Press ""L""</p></div>
            </center>
            <p style=""text-align:center"">Which clip sounds more like someone who was born in Boston?</p>","s","","","","","","","","11","F5_01","M1_02","F5","M1","female","male","Oh my god.","parallel ways.","short","3","0","",""
"","","","","","audio-keyboard-response","172","577415","0.0-172.0","","","","","","","","","","","","null","../audio/M5_02.WAV","null","M5_02","M5","male","1","2.229229","2.244","Because back in the seventies,","","","","","","","","","","","","","",""
"","","","","","audio-keyboard-response","173","580343","0.0-173.0","","","","","","","","","","","","null","../audio/F4_02.WAV","s","F4_02","F4","female","2","2.916635","2.058","Yeah, a little bit, like elementary school.","","","","","","","","","","","","","",""
"","","","","","html-keyboard-response","174","582345","0.0-174.0","","","","","","","","","","","","1104","
            <center>
                <div id=""clip1"" class=""visual"">Clip 1<p>Press ""S""</p></div>
                <div id=""clip2"" class=""visual"">Clip 2<p>Press ""L""</p></div>
            </center>
            <p style=""text-align:center"">Which clip sounds more like someone who was born in Boston?</p>","s","","","","","","","","12","M5_02","F4_02","M5","F4","male","female","Because back in the seventies,","Yeah, a little bit, like elementary school.","short","3","0","",""
"","","","","","audio-keyboard-response","175","586017","0.0-175.0","","","","","","","","","","","","null","../audio/F2_01.WAV","null","F2_01","F2","female","1","1.654760","3.021","and then upstairs in her apartment,","","","","","","","","","","","","","",""
"","","","","","audio-keyboard-response","176","588557","0.0-176.0","","","","","","","","","","","","null","../audio/M4_02.WAV","s","M4_02","M4","male","2","2.538281","2.364","the most intimate group of friends,","","","","","","","","","","","","","",""
"","","","","","html-keyboard-response","177","590563","0.0-177.0","","","","","","","","","","","","304","
            <center>
                <div id=""clip1"" class=""visual"">Clip 1<p>Press ""S""</p></div>
                <div id=""clip2"" class=""visual"">Clip 2<p>Press ""L""</p></div>
            </center>
            <p style=""text-align:center"">Which clip sounds more like someone who was born in Boston?</p>","s","","","","","","","","13","F2_01","M4_02","F2","M4","female","male","and then upstairs in her apartment,","the most intimate group of friends,","short","3","0","",""
"","","","","","audio-keyboard-response","178","595305","0.0-178.0","","","","","","","","","","","","null","../audio/F1_01.WAV","null","F1_01","F1","female","1","2.729260","1.832","because of the limited space.","","","","","","","","","","","","","",""
"","","","","","audio-keyboard-response","179","599577","0.0-179.0","","","","","","","","","","","","null","../audio/F3_01.WAV","l","F3_01","F3","female","2","4.267563","1.875","my parents, my two sisters, and my two brothers.","","","","","","","","","","","","","",""
"","","","","","html-keyboard-response","180","601586","0.0-180.0","","","","","","","","","","","","1273","
            <center>
                <div id=""clip1"" class=""visual"">Clip 1<p>Press ""S""</p></div>
                <div id=""clip2"" class=""visual"">Clip 2<p>Press ""L""</p></div>
            </center>
            <p style=""text-align:center"">Which clip sounds more like someone who was born in Boston?</p>","l","","","","","","","","14","F1_01","F3_01","F1","F3","female","female","because of the limited space.","my parents, my two sisters, and my two brothers.","short","3","0","",""
"","","","","","audio-keyboard-response","181","604765","0.0-181.0","","","","","","","","","","","","null","../audio/F3_02.WAV","null","F3_02","F3","female","1","1.165760","2.574","as homeless people.","","","","","","","","","","","","","",""
"","","","","","audio-keyboard-response","182","605987","0.0-182.0","","","","","","","","","","","","null","../audio/M1_01.WAV","s","M1_01","M1","male","2","1.220375","4.095","being in the medical field,","","","","","","","","","","","","","",""
"","","","","","html-keyboard-response","183","607998","0.0-183.0","","","","","","","","","","","","1358","
            <center>
                <div id=""clip1"" class=""visual"">Clip 1<p>Press ""S""</p></div>
                <div id=""clip2"" class=""visual"">Clip 2<p>Press ""L""</p></div>
            </center>
            <p style=""text-align:center"">Which clip sounds more like someone who was born in Boston?</p>","s","","","","","","","","15","F3_02","M1_01","F3","M1","female","male","as homeless people.","being in the medical field,","short","3","0","",""
"","","","","","audio-keyboard-response","184","612301","0.0-184.0","","","","","","","","","","","","null","../audio/F1_02.WAV","null","F1_02","F1","female","1","2.286385","2.187","clothes or fashion for that matter.","","","","","","","","","","","","","",""
"","","","","","audio-keyboard-response","185","614967","0.0-185.0","","","","","","","","","","","","null","../audio/M2_02.WAV","s","M2_02","M2","male","2","2.665333","3.001","But later on, when I traveled quite a bit,","","","","","","","","","","","","","",""
"","","","","","html-keyboard-response","186","616982","0.0-186.0","","","","","","","","","","","","840","
            <center>
                <div id=""clip1"" class=""visual"">Clip 1<p>Press ""S""</p></div>
                <div id=""clip2"" class=""visual"">Clip 2<p>Press ""L""</p></div>
            </center>
            <p style=""text-align:center"">Which clip sounds more like someone who was born in Boston?</p>","s","","","","","","","","16","F1_02","M2_02","F1","M2","female","male","clothes or fashion for that matter.","But later on, when I traveled quite a bit,","short","3","0","",""
"","","","","","audio-keyboard-response","187","620015","0.0-187.0","","","","","","","","","","","","null","../audio/M2_01.WAV","null","M2_01","M2","male","1","1.025729","3.900","being in the squallor.","","","","","","","","","","","","","",""
"","","","","","audio-keyboard-response","188","621854","0.0-188.0","","","","","","","","","","","","null","../audio/F4_01.WAV","l","F4_01","F4","female","2","1.835479","2.724","Probably right before I turned six.","","","","","","","","","","","","","",""
"","","","","","html-keyboard-response","189","623859","0.0-189.0","","","","","","","","","","","","455","
            <center>
                <div id=""clip1"" class=""visual"">Clip 1<p>Press ""S""</p></div>
                <div id=""clip2"" class=""visual"">Clip 2<p>Press ""L""</p></div>
            </center>
            <p style=""text-align:center"">Which clip sounds more like someone who was born in Boston?</p>","l","","","","","","","","17","M2_01","F4_01","M2","F4","male","female","being in the squallor.","Probably right before I turned six.","short","3","0","",""
"","","","","","audio-keyboard-response","190","627732","0.0-190.0","","","","","","","","","","","","null","../audio/M5_01.WAV","null","M5_01","M5","male","1","1.863625","3.755","half an hour, probably fourty five minutes away.","","","","","","","","","","","","","",""
"","","","","","audio-keyboard-response","191","629637","0.0-191.0","","","","","","","","","","","","null","../audio/F2_02.WAV","l","F2_02","F2","female","2","1.902969","2.627","And so my mother also","","","","","","","","","","","","","",""
"","","","","","html-keyboard-response","192","631647","0.0-192.0","","","","","","","","","","","","728","
            <center>
                <div id=""clip1"" class=""visual"">Clip 1<p>Press ""S""</p></div>
                <div id=""clip2"" class=""visual"">Clip 2<p>Press ""L""</p></div>
            </center>
            <p style=""text-align:center"">Which clip sounds more like someone who was born in Boston?</p>","l","","","","","","","","18","M5_01","F2_02","M5","F2","male","female","half an hour, probably fourty five minutes away.","And so my mother also","short","3","0","",""
"","","","","","audio-keyboard-response","193","635410","0.0-193.0","","","","","","","","","","","","null","../audio/F5_02.WAV","null","F5_02","F5","female","1","1.750198","2.286","My father also, you know,","","","","","","","","","","","","","",""
"","","","","","audio-keyboard-response","194","636297","0.0-194.0","","","","","","","","","","","","null","../audio/M4_01.WAV","s","M4_01","M4","male","2","0.883969","3.393","yeah last fall","","","","","","","","","","","","","",""
"","","","","","html-keyboard-response","195","638306","0.0-195.0","","","","","","","","","","","","1418","
            <center>
                <div id=""clip1"" class=""visual"">Clip 1<p>Press ""S""</p></div>
                <div id=""clip2"" class=""visual"">Clip 2<p>Press ""L""</p></div>
            </center>
            <p style=""text-align:center"">Which clip sounds more like someone who was born in Boston?</p>","s","","","","","","","","19","F5_02","M4_01","F5","M4","female","male","My father also, you know,","yeah last fall","short","3","0","",""
"","","","","","audio-keyboard-response","196","641986","0.0-196.0","","","","","","","","","","","","null","../audio/M3_01.WAV","null","M3_01","M3","male","1","1.659469","2.411","to further my education.","","","","","","","","","","","","","",""
"","","","","","audio-keyboard-response","197","643697","0.0-197.0","","","","","","","","","","","","null","../audio/M3_02.WAV","s","M3_02","M3","male","2","1.709750","2.924","And then on Sunday morning","","","","","","","","","","","","","",""
"","","","","","html-keyboard-response","198","645710","0.0-198.0","","","","","","","","","","","","1667","
            <center>
                <div id=""clip1"" class=""visual"">Clip 1<p>Press ""S""</p></div>
                <div id=""clip2"" class=""visual"">Clip 2<p>Press ""L""</p></div>
            </center>
            <p style=""text-align:center"">Which clip sounds more like someone who was born in Boston?</p>","s","","","","","","","","20","M3_01","M3_02","M3","M3","male","male","to further my education.","And then on Sunday morning","short","3","0","",""
"","","","","","audio-keyboard-response","199","649205","0.0-199.0","","","","","","","","","","","","null","../audio/M1_03.WAV","null","M1_03","M1","male","1","1.480896","2.701","you kind of get spoiled.","","","","","","","","","","","","","",""
"","","","","","audio-keyboard-response","200","652374","0.0-200.0","","","","","","","","","","","","null","../audio/F5_03.WAV","s","F5_03","F5","female","2","3.162094","2.530","It was a totally new experience to me.","","","","","","","","","","","","","",""
"","","","","","html-keyboard-response","201","654380","0.0-201.0","","","","","","","","","","","","1255","
            <center>
                <div id=""clip1"" class=""visual"">Clip 1<p>Press ""S""</p></div>
                <div id=""clip2"" class=""visual"">Clip 2<p>Press ""L""</p></div>
            </center>
            <p style=""text-align:center"">Which clip sounds more like someone who was born in Boston?</p>","s","","","","","","","","1","M1_03","F5_03","M1","F5","male","female","you kind of get spoiled.","It was a totally new experience to me.","long","4","0","",""
"","","","","","audio-keyboard-response","202","660393","0.0-202.0","","","","","","","","","","","","null","../audio/F4_04.WAV","null","F4_04","F4","female","1","3.988719","3.509","So when I got in, I knew that I can take the train, it was easy to commute.","","","","","","","","","","","","","",""
"","","","","","audio-keyboard-response","203","662970","0.0-203.0","","","","","","","","","","","","null","../audio/M3_04.WAV","s","M3_04","M3","male","2","2.564635","3.508","You had to learn about what they're talking about.","","","","","","","","","","","","","",""
"","","","","","html-keyboard-response","204","664973","0.0-204.0","","","","","","","","","","","","787","
            <center>
                <div id=""clip1"" class=""visual"">Clip 1<p>Press ""S""</p></div>
                <div id=""clip2"" class=""visual"">Clip 2<p>Press ""L""</p></div>
            </center>
            <p style=""text-align:center"">Which clip sounds more like someone who was born in Boston?</p>","s","","","","","","","","2","F4_04","M3_04","F4","M3","female","male","So when I got in, I knew that I can take the train, it was easy to commute.","You had to learn about what they're talking about.","long","4","0","",""
"","","","","","audio-keyboard-response","205","670652","0.0-205.0","","","","","","","","","","","","null","../audio/F4_03.WAV","null","F4_03","F4","female","1","3.670938","2.724","Yeah, it was an apartment building. It was like a one-bedroom","","","","","","","","","","","","","",""
"","","","","","audio-keyboard-response","206","672835","0.0-206.0","","","","","","","","","","","","null","../audio/M2_04.WAV","s","M2_04","M2","male","2","2.180729","2.751","People just focus on making money.","","","","","","","","","","","","","",""
"","","","","","html-keyboard-response","207","674836","0.0-207.0","","","","","","","","","","","","658","
            <center>
                <div id=""clip1"" class=""visual"">Clip 1<p>Press ""S""</p></div>
                <div id=""clip2"" class=""visual"">Clip 2<p>Press ""L""</p></div>
            </center>
            <p style=""text-align:center"">Which clip sounds more like someone who was born in Boston?</p>","s","","","","","","","","3","F4_03","M2_04","F4","M2","female","male","Yeah, it was an apartment building. It was like a one-bedroom","People just focus on making money.","long","4","0","",""
"","","","","","audio-keyboard-response","208","678645","0.0-208.0","","","","","","","","","","","","null","../audio/M4_04.WAV","null","M4_04","M4","male","1","1.785187","3.361","I'm still struggling to be honest.","","","","","","","","","","","","","",""
"","","","","","audio-keyboard-response","209","683024","0.0-209.0","","","","","","","","","","","","null","../audio/M5_03.WAV","s","M5_03","M5","male","2","4.375990","1.829","So we start transporting, moving kids outside of the neighborhood.","","","","","","","","","","","","","",""
"","","","","","html-keyboard-response","210","685034","0.0-210.0","","","","","","","","","","","","1444","
            <center>
                <div id=""clip1"" class=""visual"">Clip 1<p>Press ""S""</p></div>
                <div id=""clip2"" class=""visual"">Clip 2<p>Press ""L""</p></div>
            </center>
            <p style=""text-align:center"">Which clip sounds more like someone who was born in Boston?</p>","s","","","","","","","","4","M4_04","M5_03","M4","M5","male","male","I'm still struggling to be honest.","So we start transporting, moving kids outside of the neighborhood.","long","4","0","",""
"","","","","","audio-keyboard-response","211","688566","0.0-211.0","","","","","","","","","","","","null","../audio/M1_04.WAV","null","M1_04","M1","male","1","1.508312","4.640","It's a really nice place to live.","","","","","","","","","","","","","",""
"","","","","","audio-keyboard-response","212","691985","0.0-212.0","","","","","","","","","","","","null","../audio/F5_04.WAV","s","F5_04","F5","female","2","3.404396","2.056","After half a year, I start full-time.","","","","","","","","","","","","","",""
"","","","","","html-keyboard-response","213","693993","0.0-213.0","","","","","","","","","","","","1328","
            <center>
                <div id=""clip1"" class=""visual"">Clip 1<p>Press ""S""</p></div>
                <div id=""clip2"" class=""visual"">Clip 2<p>Press ""L""</p></div>
            </center>
            <p style=""text-align:center"">Which clip sounds more like someone who was born in Boston?</p>","s","","","","","","","","5","M1_04","F5_04","M1","F5","male","female","It's a really nice place to live.","After half a year, I start full-time.","long","4","0","",""
"","","","","","audio-keyboard-response","214","698905","0.0-214.0","","","","","","","","","","","","null","../audio/F2_04.WAV","null","F2_04","F2","female","1","2.902938","4.134","They buy a whole pig and then they eat their way through it.","","","","","","","","","","","","","",""
"","","","","","audio-keyboard-response","215","700987","0.0-215.0","","","","","","","","","","","","null","../audio/F2_03.WAV","l","F2_03","F2","female","2","2.078781","4.811","But it was illegal at that time, and I didn't know that.","","","","","","","","","","","","","",""
"","","","","","html-keyboard-response","216","703000","0.0-216.0","","","","","","","","","","","","1353","
            <center>
                <div id=""clip1"" class=""visual"">Clip 1<p>Press ""S""</p></div>
                <div id=""clip2"" class=""visual"">Clip 2<p>Press ""L""</p></div>
            </center>
            <p style=""text-align:center"">Which clip sounds more like someone who was born in Boston?</p>","l","","","","","","","","6","F2_04","F2_03","F2","F2","female","female","They buy a whole pig and then they eat their way through it.","But it was illegal at that time, and I didn't know that.","long","4","0","",""
"","","","","","audio-keyboard-response","217","707465","0.0-217.0","","","","","","","","","","","","null","../audio/F1_03.WAV","null","F1_03","F1","female","1","2.456333","2.442","I end up going to high school.","","","","","","","","","","","","","",""
"","","","","","audio-keyboard-response","218","709026","0.0-218.0","","","","","","","","","","","","null","../audio/M5_04.WAV","s","M5_04","M5","male","2","1.560854","3.204","and the summer was cold.","","","","","","","","","","","","","",""
"","","","","","html-keyboard-response","219","711028","0.0-219.0","","","","","","","","","","","","1630","
            <center>
                <div id=""clip1"" class=""visual"">Clip 1<p>Press ""S""</p></div>
                <div id=""clip2"" class=""visual"">Clip 2<p>Press ""L""</p></div>
            </center>
            <p style=""text-align:center"">Which clip sounds more like someone who was born in Boston?</p>","s","","","","","","","","7","F1_03","M5_04","F1","M5","female","male","I end up going to high school.","and the summer was cold.","long","4","0","",""
"","","","","","audio-keyboard-response","220","717163","0.0-220.0","","","","","","","","","","","","null","../audio/F3_04.WAV","null","F3_04","F3","female","1","4.115500","2.430","they would also know just because it's easier to identify families.","","","","","","","","","","","","","",""
"","","","","","audio-keyboard-response","221","720545","0.0-221.0","","","","","","","","","","","","null","../audio/M3_03.WAV","s","M3_03","M3","male","2","3.378094","3.553","Probably you heard on the radio or on the news, they are downsizing.","","","","","","","","","","","","","",""
"","","","","","html-keyboard-response","222","722549","0.0-222.0","","","","","","","","","","","","869","
            <center>
                <div id=""clip1"" class=""visual"">Clip 1<p>Press ""S""</p></div>
                <div id=""clip2"" class=""visual"">Clip 2<p>Press ""L""</p></div>
            </center>
            <p style=""text-align:center"">Which clip sounds more like someone who was born in Boston?</p>","s","","","","","","","","8","F3_04","M3_03","F3","M3","female","male","they would also know just because it's easier to identify families.","Probably you heard on the radio or on the news, they are downsizing.","long","4","0","",""
"","","","","","audio-keyboard-response","223","726708","0.0-223.0","","","","","","","","","","","","null","../audio/M4_03.WAV","null","M4_03","M4","male","1","2.137188","1.872","they didn't really respond","","","","","","","","","","","","","",""
"","","","","","audio-keyboard-response","224","729737","0.0-224.0","","","","","","","","","","","","null","../audio/M2_03.WAV","s","M2_03","M2","male","2","3.026990","2.643","The airport is basically a one-story building.","","","","","","","","","","","","","",""
"","","","","","html-keyboard-response","225","731745","0.0-225.0","","","","","","","","","","","","1107","
            <center>
                <div id=""clip1"" class=""visual"">Clip 1<p>Press ""S""</p></div>
                <div id=""clip2"" class=""visual"">Clip 2<p>Press ""L""</p></div>
            </center>
            <p style=""text-align:center"">Which clip sounds more like someone who was born in Boston?</p>","s","","","","","","","","9","M4_03","M2_03","M4","M2","male","male","they didn't really respond","The airport is basically a one-story building.","long","4","0","",""
"","","","","","audio-keyboard-response","226","736941","0.0-226.0","","","","","","","","","","","","null","../audio/F1_04.WAV","null","F1_04","F1","female","1","3.175875","3.149","but majority of the time people offer to pick me up.","","","","","","","","","","","","","",""
"","","","","","audio-keyboard-response","227","739907","0.0-227.0","","","","","","","","","","","","null","../audio/F3_03.WAV","l","F3_03","F3","female","2","2.959219","2.028","So initially my father said no.","","","","","","","","","","","","","",""
"","","","","","html-keyboard-response","228","741920","0.0-228.0","","","","","","","","","","","","966","
            <center>
                <div id=""clip1"" class=""visual"">Clip 1<p>Press ""S""</p></div>
                <div id=""clip2"" class=""visual"">Clip 2<p>Press ""L""</p></div>
            </center>
            <p style=""text-align:center"">Which clip sounds more like someone who was born in Boston?</p>","l","","","","","","","","10","F1_04","F3_03","F1","F3","female","female","but majority of the time people offer to pick me up.","So initially my father said no.","long","4","0","",""
"","","","","","audio-keyboard-response","229","747123","0.0-229.0","","","","","","","","","","","","null","../audio/F1_04.WAV","null","F1_04","F1","female","1","3.175875","3.149","but majority of the time people offer to pick me up.","","","","","","","","","","","","","",""
"","","","","","audio-keyboard-response","230","748687","0.0-230.0","","","","","","","","","","","","null","../audio/M5_04.WAV","s","M5_04","M5","male","2","1.560854","3.204","and the summer was cold.","","","","","","","","","","","","","",""
"","","","","","html-keyboard-response","231","750689","0.0-231.0","","","","","","","","","","","","1143","
            <center>
                <div id=""clip1"" class=""visual"">Clip 1<p>Press ""S""</p></div>
                <div id=""clip2"" class=""visual"">Clip 2<p>Press ""L""</p></div>
            </center>
            <p style=""text-align:center"">Which clip sounds more like someone who was born in Boston?</p>","s","","","","","","","","11","F1_04","M5_04","F1","M5","female","male","but majority of the time people offer to pick me up.","and the summer was cold.","long","4","0","",""
"","","","","","audio-keyboard-response","232","754878","0.0-232.0","","","","","","","","","","","","null","../audio/M2_04.WAV","null","M2_04","M2","male","1","2.180729","2.751","People just focus on making money.","","","","","","","","","","","","","",""
"","","","","","audio-keyboard-response","233","758047","0.0-233.0","","","","","","","","","","","","null","../audio/F5_03.WAV","s","F5_03","F5","female","2","3.162094","2.530","It was a totally new experience to me.","","","","","","","","","","","","","",""
"","","","","","html-keyboard-response","234","760057","0.0-234.0","","","","","","","","","","","","1219","
            <center>
                <div id=""clip1"" class=""visual"">Clip 1<p>Press ""S""</p></div>
                <div id=""clip2"" class=""visual"">Clip 2<p>Press ""L""</p></div>
            </center>
            <p style=""text-align:center"">Which clip sounds more like someone who was born in Boston?</p>","s","","","","","","","","12","M2_04","F5_03","M2","F5","male","female","People just focus on making money.","It was a totally new experience to me.","long","4","0","",""
"","","","","","audio-keyboard-response","235","766068","0.0-235.0","","","","","","","","","","","","null","../audio/F4_04.WAV","null","F4_04","F4","female","1","3.988719","3.509","So when I got in, I knew that I can take the train, it was easy to commute.","","","","","","","","","","","","","",""
"","","","","","audio-keyboard-response","236","770187","0.0-236.0","","","","","","","","","","","","null","../audio/F3_04.WAV","l","F3_04","F3","female","2","4.115500","2.430","they would also know just because it's easier to identify families.","","","","","","","","","","","","","",""
"","","","","","html-keyboard-response","237","772199","0.0-237.0","","","","","","","","","","","","1042","
            <center>
                <div id=""clip1"" class=""visual"">Clip 1<p>Press ""S""</p></div>
                <div id=""clip2"" class=""visual"">Clip 2<p>Press ""L""</p></div>
            </center>
            <p style=""text-align:center"">Which clip sounds more like someone who was born in Boston?</p>","l","","","","","","","","13","F4_04","F3_04","F4","F3","female","female","So when I got in, I knew that I can take the train, it was easy to commute.","they would also know just because it's easier to identify families.","long","4","0","",""
"","","","","","audio-keyboard-response","238","775686","0.0-238.0","","","","","","","","","","","","null","../audio/M1_03.WAV","null","M1_03","M1","male","1","1.480896","2.701","you kind of get spoiled.","","","","","","","","","","","","","",""
"","","","","","audio-keyboard-response","239","777477","0.0-239.0","","","","","","","","","","","","null","../audio/M4_04.WAV","s","M4_04","M4","male","2","1.785187","3.361","I'm still struggling to be honest.","","","","","","","","","","","","","",""
"","","","","","html-keyboard-response","240","779487","0.0-240.0","","","","","","","","","","","","1229","
            <center>
                <div id=""clip1"" class=""visual"">Clip 1<p>Press ""S""</p></div>
                <div id=""clip2"" class=""visual"">Clip 2<p>Press ""L""</p></div>
            </center>
            <p style=""text-align:center"">Which clip sounds more like someone who was born in Boston?</p>","s","","","","","","","","14","M1_03","M4_04","M1","M4","male","male","you kind of get spoiled.","I'm still struggling to be honest.","long","4","0","",""
"","","","","","audio-keyboard-response","241","783645","0.0-241.0","","","","","","","","","","","","null","../audio/M4_03.WAV","null","M4_03","M4","male","1","2.137188","1.872","they didn't really respond","","","","","","","","","","","","","",""
"","","","","","audio-keyboard-response","242","788033","0.0-242.0","","","","","","","","","","","","null","../audio/M5_03.WAV","l","M5_03","M5","male","2","4.375990","1.829","So we start transporting, moving kids outside of the neighborhood.","","","","","","","","","","","","","",""
"","","","","","html-keyboard-response","243","790041","0.0-243.0","","","","","","","","","","","","301","
            <center>
                <div id=""clip1"" class=""visual"">Clip 1<p>Press ""S""</p></div>
                <div id=""clip2"" class=""visual"">Clip 2<p>Press ""L""</p></div>
            </center>
            <p style=""text-align:center"">Which clip sounds more like someone who was born in Boston?</p>","l","","","","","","","","15","M4_03","M5_03","M4","M5","male","male","they didn't really respond","So we start transporting, moving kids outside of the neighborhood.","long","4","0","",""
"","","","","","audio-keyboard-response","244","795463","0.0-244.0","","","","","","","","","","","","null","../audio/F5_04.WAV","null","F5_04","F5","female","1","3.404396","2.056","After half a year, I start full-time.","","","","","","","","","","","","","",""
"","","","","","audio-keyboard-response","245","796977","0.0-245.0","","","","","","","","","","","","null","../audio/M1_04.WAV","s","M1_04","M1","male","2","1.508312","4.640","It's a really nice place to live.","","","","","","","","","","","","","",""
"","","","","","html-keyboard-response","246","798986","0.0-246.0","","","","","","","","","","","","1943","
            <center>
                <div id=""clip1"" class=""visual"">Clip 1<p>Press ""S""</p></div>
                <div id=""clip2"" class=""visual"">Clip 2<p>Press ""L""</p></div>
            </center>
            <p style=""text-align:center"">Which clip sounds more like someone who was born in Boston?</p>","s","","","","","","","","16","F5_04","M1_04","F5","M1","female","male","After half a year, I start full-time.","It's a really nice place to live.","long","4","0","",""
"","","","","","audio-keyboard-response","247","804036","0.0-247.0","","","","","","","","","","","","null","../audio/M2_03.WAV","null","M2_03","M2","male","1","3.026990","2.643","The airport is basically a one-story building.","","","","","","","","","","","","","",""
"","","","","","audio-keyboard-response","248","806497","0.0-248.0","","","","","","","","","","","","null","../audio/F1_03.WAV","null","F1_03","F1","female","2","2.456333","2.442","I end up going to high school.","","","","","","","","","","","","","",""
"","","","","","html-keyboard-response","249","808513","0.0-249.0","","","","","","","","","","","","null","
            <center>
                <div id=""clip1"" class=""visual"">Clip 1<p>Press ""S""</p></div>
                <div id=""clip2"" class=""visual"">Clip 2<p>Press ""L""</p></div>
            </center>
            <p style=""text-align:center"">Which clip sounds more like someone who was born in Boston?</p>","null","","","","","","","","17","M2_03","F1_03","M2","F1","male","female","The airport is basically a one-story building.","I end up going to high school.","long","4","0","",""
"","","","","","audio-keyboard-response","250","813902","0.0-250.0","","","","","","","","","","","","null","../audio/M3_03.WAV","null","M3_03","M3","male","1","3.378094","3.553","Probably you heard on the radio or on the news, they are downsizing.","","","","","","","","","","","","","",""
"","","","","","audio-keyboard-response","251","817577","0.0-251.0","","","","","","","","","","","","null","../audio/F4_03.WAV","l","F4_03","F4","female","2","3.670938","2.724","Yeah, it was an apartment building. It was like a one-bedroom","","","","","","","","","","","","","",""
"","","","","","html-keyboard-response","252","819578","0.0-252.0","","","","","","","","","","","","397","
            <center>
                <div id=""clip1"" class=""visual"">Clip 1<p>Press ""S""</p></div>
                <div id=""clip2"" class=""visual"">Clip 2<p>Press ""L""</p></div>
            </center>
            <p style=""text-align:center"">Which clip sounds more like someone who was born in Boston?</p>","l","","","","","","","","18","M3_03","F4_03","M3","F4","male","female","Probably you heard on the radio or on the news, they are downsizing.","Yeah, it was an apartment building. It was like a one-bedroom","long","4","0","",""
"","","","","","audio-keyboard-response","253","824553","0.0-253.0","","","","","","","","","","","","null","../audio/F3_03.WAV","null","F3_03","F3","female","1","2.959219","2.028","So initially my father said no.","","","","","","","","","","","","","",""
