"success","timeout","failed_images","failed_audio","failed_video","trial_type","trial_index","time_elapsed","internal_node_id","width","height","webaudio","browser","browser_version","mobile","os","fullscreen","vsync_rate","webcam","microphone","rt","stimulus","response","ID","talker","gender","order","duration","speech_rate","transcript","Order","clip1_id","clip2_id","clip1_speaker","clip2_speaker","clip1_gender","clip2_gender","clip1_transcript","clip2_transcript","block_type","block_number","counterbalance_id","accuracy","question_order"
"true","false","[]","[]","[]","preload","0","108","0.0-0.0","","","","","","","","","","","","","","","","","","","","","","","","","","","","","","","","","","",""
"true","false","[]","[]","[]","preload","1","690","0.0-1.0","","","","","","","","","","","","","","","","","","","","","","","","","","","","","","","","","","",""
"","","","","","browser-check","2","1947","0.0-2.0","1536","776","true","chrome","136.0.0","false","Windows 10","true","60.94","true","true","","","","","","","","","","","","","","","","","","","","","","","",""
"","","","","","html-button-response","3","510836","0.0-3.0","","","","","","","","","","","","508636","
        <div class=""text"" id=""instruction"" >
            <img src=""../images/stanford_logo.png"" alt=""stanford logo"" width=""180"" height=""80"">
            <p><b>Only complete this study if you are a Massachussets resident who is 18 years old or older.</b></p>
            <p>Please share this link with other people you know who live in the area, but <u>do not participate in this study more than once</u>.
            <BR>You will not be compensated more than once.</p> 
            <p>In this experiment, you will be listening to pairs of audio clips.</p>
            <p>Each pair of audio clips will be played once in consecutive order. Your task is to decide which one of the clips sounds like the speaker was born in Boston.</p>
            <p>Please ensure that you use earphones or headphones for the duration of this experiment.</p>
            <p>This experiment should be completed on a <b><u>desktop or laptop</u></b> using the <b><u>Google Chrome browser</u></b>.</p>
            <p>The experiment will take approximately 20 minutes. You will be compensated as advertised on Prolific for your time.</p>
        </div>
      ","0","","","","","","","","","","","","","","","","","","","","",""
"","","","","","html-button-response","4","513539","0.0-4.0","","","","","","","","","","","","2446","<p><strong>Thank you for your participation in this study. Please read the protocol below.</strong></p>
        <p>Protocol Director: Robert Hawkins</P
        <p>Protocol Title: Communication and social cognition in natural audiovisual contexts IRB# 77226</p>
        <p>DESCRIPTION: You are invited to participate in a research study about language and communication. 
        The purpose of the research is to understand how you interact and communicate with other people in naturalistic settings as a fluent English speaker. 
        This research will be conducted through the Prolific platform, including participants from the US, UK, and Canada. 
        If you decide to participate in this research, you will play a communication game in a group with one or more partners.</p>
        <p>TIME INVOLVEMENT: The task will last the amount of time advertised on Prolific. You are free to withdraw from the study at any time.</p>
        <p>RISKS AND BENEFITS: You may become frustrated if your partner gets distracted, or experience discomfort if other participants in your group 
        send text that is inappropriate for the task. We ask you to please be respectful of other participants you might be
        interacting with to mitigate these risks. You may also experience discomfort when being asked to discuss or challenge emotionally salient political beliefs. Study data will be
        stored securely, in compliance with Stanford University standards, minimizing the risk of confidentiality breach. This study advances our scientific understanding of how people
        communication and collaborate in naturalistic settings. This study may lead to further
        insights about what can go wrong in teamwork, suggest potential interventions to
        overcome these barriers, and help to develop assistive technologies that collaborate with
        human partners. We cannot and do not guarantee or promise that you will receive any benefits from this study.</p>
        <p>PAYMENTS: You will receive payment in the amount advertised on Prolific. If you do not complete this study, you will receive prorated payment based on the time that you have
        spent. Additionally, you may be eligible for bonus payments as described in the instructions.</p>
        <p> PARTICIPANTS RIGHTS: If you have read this form and have decided to participate in this project, please understand your participation is voluntary and you have the right
        to withdraw your consent or discontinue participation at any time without penalty or loss of benefits to which you are otherwise entitled. The alternative
        is not to participate. You have the right to refuse to answer particular questions. The results of this research study may be presented at scientific or professional meetings or
        published in scientific journals. Your individual privacy will be maintained in all published and written data resulting from the study. In accordance with scientific norms, the data
        from this study may be used or shared with other researchers for future research (after removing personally identifying information) without additional consent from you.</p>
        <p>CONTACT INFORMATION: Questions: If you have any questions, concerns or complaints about this research, its procedures, risks and benefits, contact the Protocol Director, Robert Hawkins (rdhawkins@stanford.edu, 217-549-6923).</p>
        <p>Independent Contact: If you are not satisfied with how this study is being conducted, or if you have any concerns, complaints, or general questions about the research or your rights as a participant, please contact the Stanford Institutional Review Board (IRB) to
        speak to someone independent of the research team at 650-723-2480 or toll free at 1-866-680-2906, or email at irbnonmed@stanford.edu. You can also write to the Stanford IRB, Stanford University, 1705 El Camino Real, Palo Alto, CA 94306. Please save or print a
        copy of this page for your records.</p>
        <p>If you agree to participate in this research, press the <strong>CONTINUE</strong> button to begin.</p> 
      ","0","","","","","","","","","","","","","","","","","","","","",""
"","","","","","cloze","5","2701952","0.0-5.0","","","","","","","","","","","","","","[""friends""]","","","","","","","","","","","","","","","","","","","","",""
"","","","","","html-button-response","6","2779925","0.0-6.0","","","","","","","","","","","","77716","
    <center>
      <div class=""instruction-box"">
        <p>You will now begin the practice trials.</p>
        <p>In each trial, two audio clips will play one after another. You will hear a variety of sentences and phrases spoken by different talkers.</p>
        <p>Each audio clip will only be played once and you will not be able to replay them.</p>
        <p><strong>Your task is to decide which clip sounds more like the speaker was born in Boston.</strong></p>
        <p><strong>These clips come from a range of different people so they might not all sound like your typical Bostonian, but just make your best guess as quickly as possible.</strong></p>        
  </center>
        ","0","","","","","","","","","","","","","","","","","","","","",""
"","","","","","html-button-response","7","2838187","0.0-7.0","","","","","","","","","","","","58002","
    <center>   
      <div class=""instruction-box"">   
        <p>Please place your left index finger on the ""S"" key and your right index finger on the ""L"" key.</p>
        <p><img src=""../procedures/keyboard.png"" width=""500"" style=""margin-top:-10px""></p>
        <p>If the <strong>first clip</strong> sounds more like someone who was born in Boston, please <strong>press S</strong>.</p>
        <p>If the <strong>second clip</strong> sounds more like someone who was born in Boston, please <strong>press L</strong>.</p>
        <p><b>Respond as quickly as possible when both clips have finished playing.</b></p>
        <p>This is a timed task. If you do not respond in time, the next question will appear automatically.</p>
        <p><b>Please answer as quickly and accurately as possible.</b></p>
    </center>
        ","0","","","","","","","","","","","","","","","","","","","","",""
"","","","","","audio-keyboard-response","8","2842477","0.0-8.0","","","","","","","","","","","","null","../practice/trial1_clip1.WAV","null","practice_trial1_clip1","practice_speaker","unknown","1","4","unknown","practice_transcript","","","","","","","","","","","","","",""
"","","","","","audio-keyboard-response","9","2846482","0.0-9.0","","","","","","","","","","","","null","../practice/trial1_clip2.WAV","null","practice_trial1_clip2","practice_speaker","unknown","2","4","unknown","practice_transcript","","","","","","","","","","","","","",""
"","","","","","html-keyboard-response","10","2848498","0.0-10.0","","","","","","","","","","","","null","
        <center>
            <div id=""clip1"" class=""visual"">Clip 1<p>Press ""S""</p></div>
            <div id=""clip2"" class=""visual"">Clip 2<p>Press ""L""</p></div>
        </center>
        <p style=""text-align:center"">Which clip sounds more like someone who was born in Boston?</p>","null","","","","","","","","1","practice_trial1_clip1","practice_trial1_clip2","","","","","","","","","","",""
"","","","","","audio-keyboard-response","11","2854011","0.0-11.0","","","","","","","","","","","","null","../practice/trial2_clip1.WAV","null","practice_trial2_clip1","practice_speaker","unknown","1","4","unknown","practice_transcript","","","","","","","","","","","","","",""
"","","","","","audio-keyboard-response","12","2858028","0.0-12.0","","","","","","","","","","","","null","../practice/trial2_clip2.WAV","null","practice_trial2_clip2","practice_speaker","unknown","2","4","unknown","practice_transcript","","","","","","","","","","","","","",""
"","","","","","html-keyboard-response","13","2860032","0.0-13.0","","","","","","","","","","","","null","
        <center>
            <div id=""clip1"" class=""visual"">Clip 1<p>Press ""S""</p></div>
            <div id=""clip2"" class=""visual"">Clip 2<p>Press ""L""</p></div>
        </center>
        <p style=""text-align:center"">Which clip sounds more like someone who was born in Boston?</p>","null","","","","","","","","2","practice_trial2_clip1","practice_trial2_clip2","","","","","","","","","","",""
"","","","","","audio-keyboard-response","14","2865557","0.0-14.0","","","","","","","","","","","","null","../practice/trial3_clip1.WAV","null","practice_trial3_clip1","practice_speaker","unknown","1","4","unknown","practice_transcript","","","","","","","","","","","","","",""
"","","","","","audio-keyboard-response","15","2869564","0.0-15.0","","","","","","","","","","","","null","../practice/trial3_clip2.WAV","l","practice_trial3_clip2","practice_speaker","unknown","2","4","unknown","practice_transcript","","","","","","","","","","","","","",""
"","","","","","html-keyboard-response","16","2871571","0.0-16.0","","","","","","","","","","","","1255","
        <center>
            <div id=""clip1"" class=""visual"">Clip 1<p>Press ""S""</p></div>
            <div id=""clip2"" class=""visual"">Clip 2<p>Press ""L""</p></div>
        </center>
        <p style=""text-align:center"">Which clip sounds more like someone who was born in Boston?</p>","l","","","","","","","","3","practice_trial3_clip1","practice_trial3_clip2","","","","","","","","","","",""
"","","","","","html-button-response","17","2883235","0.0-17.0","","","","","","","","","","","","10157","
    <center>
      <div class=""instruction-box"">
        <p>You will now begin the experiment.</p>
        <p>In each trial, two audio clips will play one after another. You will hear a variety of sentences and phrases spoken by different talkers.</p>
        <p>Each audio clip will only be played once and you will not be able to replay them.</p>
        <p><strong>Your task is to decide which clip sounds more like someone who was born in Boston.</strong></p>
        <p><strong>These clips come from a range of different people so they might not all sound like your typical Bostonian, but please do your best to respond as quickly as possible.</strong></p>
    </center>
        ","0","","","","","","","","","","","","","","","","","","","","",""
"","","","","","html-button-response","18","2885068","0.0-18.0","","","","","","","","","","","","1577","
    <center>
      <div class=""instruction-box"">
        <p>Please place your left index finger on the ""S"" key and your right index finger on the ""L"" key.</p>
        <p><img src=""../procedures/keyboard.png"" width=""500"" style=""margin-top:-10px""></p>
        <p>If the <strong>first clip</strong> sounds more like someone who was born in Boston, please <strong>press S</strong>.</p>
        <p>If the <strong>second clip</strong> sounds more like someone who was born in Boston, please <strong>press L</strong>.</p>
        <p><b>Respond as quickly as possible when both clips have finished playing.</b></p>
        <p>This is a timed task. If you do not respond in time, the next question will appear automatically.</p>
        <p><b>Please answer as quickly and accurately as possible.</b></p>
    </center>
        ","0","","","","","","","","","","","","","","","","","","","","",""
"","","","","","audio-keyboard-response","19","2888851","0.0-19.0","","","","","","","","","","","","null","../audio/M2_03.WAV","null","M2_03","M2","male","1","3.026990","2.643","The airport is basically a one-story building.","","","","","","","","","","","","","",""
"","","","","","audio-keyboard-response","20","2890932","0.0-20.0","","","","","","","","","","","","null","../audio/F2_03.WAV","l","F2_03","F2","female","2","2.078781","4.811","But it was illegal at that time, and I didn't know that.","","","","","","","","","","","","","",""
"","","","","","html-keyboard-response","21","2892935","0.0-21.0","","","","","","","","","","","","1679","
            <center>
                <div id=""clip1"" class=""visual"">Clip 1<p>Press ""S""</p></div>
                <div id=""clip2"" class=""visual"">Clip 2<p>Press ""L""</p></div>
            </center>
            <p style=""text-align:center"">Which clip sounds more like someone who was born in Boston?</p>","l","","","","","","","","1","M2_03","F2_03","M2","F2","male","female","The airport is basically a one-story building.","But it was illegal at that time, and I didn't know that.","long","1","1","",""
"","","","","","audio-keyboard-response","22","2896499","0.0-22.0","","","","","","","","","","","","null","../audio/M5_04.WAV","null","M5_04","M5","male","1","1.560854","3.204","and the summer was cold.","","","","","","","","","","","","","",""
"","","","","","audio-keyboard-response","23","2898682","0.0-23.0","","","","","","","","","","","","null","../audio/M2_04.WAV","s","M2_04","M2","male","2","2.180729","2.751","People just focus on making money.","","","","","","","","","","","","","",""
"","","","","","html-keyboard-response","24","2900683","0.0-24.0","","","","","","","","","","","","1705","
            <center>
                <div id=""clip1"" class=""visual"">Clip 1<p>Press ""S""</p></div>
                <div id=""clip2"" class=""visual"">Clip 2<p>Press ""L""</p></div>
            </center>
            <p style=""text-align:center"">Which clip sounds more like someone who was born in Boston?</p>","s","","","","","","","","2","M5_04","M2_04","M5","M2","male","male","and the summer was cold.","People just focus on making money.","long","1","1","",""
"","","","","","audio-keyboard-response","25","2905614","0.0-25.0","","","","","","","","","","","","null","../audio/F2_04.WAV","null","F2_04","F2","female","1","2.902938","4.134","They buy a whole pig and then they eat their way through it.","","","","","","","","","","","","","",""
"","","","","","audio-keyboard-response","26","2908792","0.0-26.0","","","","","","","","","","","","null","../audio/F1_04.WAV","null","F1_04","F1","female","2","3.175875","3.149","but majority of the time people offer to pick me up.","","","","","","","","","","","","","",""
"","","","","","html-keyboard-response","27","2910797","0.0-27.0","","","","","","","","","","","","null","
            <center>
                <div id=""clip1"" class=""visual"">Clip 1<p>Press ""S""</p></div>
                <div id=""clip2"" class=""visual"">Clip 2<p>Press ""L""</p></div>
            </center>
            <p style=""text-align:center"">Which clip sounds more like someone who was born in Boston?</p>","null","","","","","","","","3","F2_04","F1_04","F2","F1","female","female","They buy a whole pig and then they eat their way through it.","but majority of the time people offer to pick me up.","long","1","1","",""
"","","","","","audio-keyboard-response","28","2916936","0.0-28.0","","","","","","","","","","","","null","../audio/F3_04.WAV","null","F3_04","F3","female","1","4.115500","2.430","they would also know just because it's easier to identify families.","","","","","","","","","","","","","",""
"","","","","","audio-keyboard-response","29","2919400","0.0-29.0","","","","","","","","","","","","null","../audio/F1_03.WAV","null","F1_03","F1","female","2","2.456333","2.442","I end up going to high school.","","","","","","","","","","","","","",""
"","","","","","html-keyboard-response","30","2921418","0.0-30.0","","","","","","","","","","","","null","
            <center>
                <div id=""clip1"" class=""visual"">Clip 1<p>Press ""S""</p></div>
                <div id=""clip2"" class=""visual"">Clip 2<p>Press ""L""</p></div>
            </center>
            <p style=""text-align:center"">Which clip sounds more like someone who was born in Boston?</p>","null","","","","","","","","4","F3_04","F1_03","F3","F1","female","female","they would also know just because it's easier to identify families.","I end up going to high school.","long","1","1","",""
"","","","","","audio-keyboard-response","31","2926841","0.0-31.0","","","","","","","","","","","","null","../audio/F5_04.WAV","null","F5_04","F5","female","1","3.404396","2.056","After half a year, I start full-time.","","","","","","","","","","","","","",""
"","","","","","audio-keyboard-response","32","2928633","0.0-32.0","","","","","","","","","","","","null","../audio/M4_04.WAV","null","M4_04","M4","male","2","1.785187","3.361","I'm still struggling to be honest.","","","","","","","","","","","","","",""
"","","","","","html-keyboard-response","33","2930649","0.0-33.0","","","","","","","","","","","","null","
            <center>
                <div id=""clip1"" class=""visual"">Clip 1<p>Press ""S""</p></div>
                <div id=""clip2"" class=""visual"">Clip 2<p>Press ""L""</p></div>
            </center>
            <p style=""text-align:center"">Which clip sounds more like someone who was born in Boston?</p>","null","","","","","","","","5","F5_04","M4_04","F5","M4","female","male","After half a year, I start full-time.","I'm still struggling to be honest.","long","1","1","",""
"","","","","","audio-keyboard-response","34","2935631","0.0-34.0","","","","","","","","","","","","null","../audio/F3_03.WAV","null","F3_03","F3","female","1","2.959219","2.028","So initially my father said no.","","","","","","","","","","","","","",""
"","","","","","audio-keyboard-response","35","2938801","0.0-35.0","","","","","","","","","","","","null","../audio/F5_03.WAV","null","F5_03","F5","female","2","3.162094","2.530","It was a totally new experience to me.","","","","","","","","","","","","","",""
"","","","","","html-keyboard-response","36","2940817","0.0-36.0","","","","","","","","","","","","null","
            <center>
                <div id=""clip1"" class=""visual"">Clip 1<p>Press ""S""</p></div>
                <div id=""clip2"" class=""visual"">Clip 2<p>Press ""L""</p></div>
            </center>
            <p style=""text-align:center"">Which clip sounds more like someone who was born in Boston?</p>","null","","","","","","","","6","F3_03","F5_03","F3","F5","female","female","So initially my father said no.","It was a totally new experience to me.","long","1","1","",""
"","","","","","audio-keyboard-response","37","2945385","0.0-37.0","","","","","","","","","","","","null","../audio/M3_04.WAV","null","M3_04","M3","male","1","2.564635","3.508","You had to learn about what they're talking about.","","","","","","","","","","","","","",""
"","","","","","audio-keyboard-response","38","2949382","0.0-38.0","","","","","","","","","","","","null","../audio/F4_04.WAV","l","F4_04","F4","female","2","3.988719","3.509","So when I got in, I knew that I can take the train, it was easy to commute.","","","","","","","","","","","","","",""
"","","","","","html-keyboard-response","39","2951392","0.0-39.0","","","","","","","","","","","","686","
            <center>
                <div id=""clip1"" class=""visual"">Clip 1<p>Press ""S""</p></div>
                <div id=""clip2"" class=""visual"">Clip 2<p>Press ""L""</p></div>
            </center>
            <p style=""text-align:center"">Which clip sounds more like someone who was born in Boston?</p>","l","","","","","","","","7","M3_04","F4_04","M3","F4","male","female","You had to learn about what they're talking about.","So when I got in, I knew that I can take the train, it was easy to commute.","long","1","1","",""
"","","","","","audio-keyboard-response","40","2954892","0.0-40.0","","","","","","","","","","","","null","../audio/M1_03.WAV","null","M1_03","M1","male","1","1.480896","2.701","you kind of get spoiled.","","","","","","","","","","","","","",""
"","","","","","audio-keyboard-response","41","2958272","0.0-41.0","","","","","","","","","","","","null","../audio/M3_03.WAV","l","M3_03","M3","male","2","3.378094","3.553","Probably you heard on the radio or on the news, they are downsizing.","","","","","","","","","","","","","",""
"","","","","","html-keyboard-response","42","2960278","0.0-42.0","","","","","","","","","","","","4","
            <center>
                <div id=""clip1"" class=""visual"">Clip 1<p>Press ""S""</p></div>
                <div id=""clip2"" class=""visual"">Clip 2<p>Press ""L""</p></div>
            </center>
            <p style=""text-align:center"">Which clip sounds more like someone who was born in Boston?</p>","l","","","","","","","","8","M1_03","M3_03","M1","M3","male","male","you kind of get spoiled.","Probably you heard on the radio or on the news, they are downsizing.","long","1","1","",""
"","","","","","audio-keyboard-response","43","2965965","0.0-43.0","","","","","","","","","","","","null","../audio/F4_03.WAV","null","F4_03","F4","female","1","3.670938","2.724","Yeah, it was an apartment building. It was like a one-bedroom","","","","","","","","","","","","","",""
"","","","","","audio-keyboard-response","44","2967480","0.0-44.0","","","","","","","","","","","","null","../audio/M1_04.WAV","l","M1_04","M1","male","2","1.508312","4.640","It's a really nice place to live.","","","","","","","","","","","","","",""
"","","","","","html-keyboard-response","45","2969496","0.0-45.0","","","","","","","","","","","","173","
            <center>
                <div id=""clip1"" class=""visual"">Clip 1<p>Press ""S""</p></div>
                <div id=""clip2"" class=""visual"">Clip 2<p>Press ""L""</p></div>
            </center>
            <p style=""text-align:center"">Which clip sounds more like someone who was born in Boston?</p>","l","","","","","","","","9","F4_03","M1_04","F4","M1","female","male","Yeah, it was an apartment building. It was like a one-bedroom","It's a really nice place to live.","long","1","1","",""
"","","","","","audio-keyboard-response","46","2973653","0.0-46.0","","","","","","","","","","","","null","../audio/M4_03.WAV","null","M4_03","M4","male","1","2.137188","1.872","they didn't really respond","","","","","","","","","","","","","",""
"","","","","","audio-keyboard-response","47","2978031","0.0-47.0","","","","","","","","","","","","null","../audio/M5_03.WAV","l","M5_03","M5","male","2","4.375990","1.829","So we start transporting, moving kids outside of the neighborhood.","","","","","","","","","","","","","",""
"","","","","","html-keyboard-response","48","2980045","0.0-48.0","","","","","","","","","","","","1061","
            <center>
                <div id=""clip1"" class=""visual"">Clip 1<p>Press ""S""</p></div>
                <div id=""clip2"" class=""visual"">Clip 2<p>Press ""L""</p></div>
            </center>
            <p style=""text-align:center"">Which clip sounds more like someone who was born in Boston?</p>","l","","","","","","","","10","M4_03","M5_03","M4","M5","male","male","they didn't really respond","So we start transporting, moving kids outside of the neighborhood.","long","1","1","",""
"","","","","","audio-keyboard-response","49","2986040","0.0-49.0","","","","","","","","","","","","null","../audio/F4_04.WAV","null","F4_04","F4","female","1","3.988719","3.509","So when I got in, I knew that I can take the train, it was easy to commute.","","","","","","","","","","","","","",""
"","","","","","audio-keyboard-response","50","2987551","0.0-50.0","","","","","","","","","","","","null","../audio/M1_04.WAV","l","M1_04","M1","male","2","1.508312","4.640","It's a really nice place to live.","","","","","","","","","","","","","",""
"","","","","","html-keyboard-response","51","2989560","0.0-51.0","","","","","","","","","","","","758","
            <center>
                <div id=""clip1"" class=""visual"">Clip 1<p>Press ""S""</p></div>
                <div id=""clip2"" class=""visual"">Clip 2<p>Press ""L""</p></div>
            </center>
            <p style=""text-align:center"">Which clip sounds more like someone who was born in Boston?</p>","l","","","","","","","","11","F4_04","M1_04","F4","M1","female","male","So when I got in, I knew that I can take the train, it was easy to commute.","It's a really nice place to live.","long","1","1","",""
"","","","","","audio-keyboard-response","52","2993363","0.0-52.0","","","","","","","","","","","","null","../audio/M4_04.WAV","null","M4_04","M4","male","1","1.785187","3.361","I'm still struggling to be honest.","","","","","","","","","","","","","",""
"","","","","","audio-keyboard-response","53","2994932","0.0-53.0","","","","","","","","","","","","null","../audio/M5_04.WAV","l","M5_04","M5","male","2","1.560854","3.204","and the summer was cold.","","","","","","","","","","","","","",""
"","","","","","html-keyboard-response","54","2996941","0.0-54.0","","","","","","","","","","","","1421","
            <center>
                <div id=""clip1"" class=""visual"">Clip 1<p>Press ""S""</p></div>
                <div id=""clip2"" class=""visual"">Clip 2<p>Press ""L""</p></div>
            </center>
            <p style=""text-align:center"">Which clip sounds more like someone who was born in Boston?</p>","l","","","","","","","","12","M4_04","M5_04","M4","M5","male","male","I'm still struggling to be honest.","and the summer was cold.","long","1","1","",""
"","","","","","audio-keyboard-response","55","3002122","0.0-55.0","","","","","","","","","","","","null","../audio/F5_03.WAV","null","F5_03","F5","female","1","3.162094","2.530","It was a totally new experience to me.","","","","","","","","","","","","","",""
"","","","","","audio-keyboard-response","56","3004261","0.0-56.0","","","","","","","","","","","","null","../audio/M4_03.WAV","null","M4_03","M4","male","2","2.137188","1.872","they didn't really respond","","","","","","","","","","","","","",""
"","","","","","html-keyboard-response","57","3006281","0.0-57.0","","","","","","","","","","","","null","
            <center>
                <div id=""clip1"" class=""visual"">Clip 1<p>Press ""S""</p></div>
                <div id=""clip2"" class=""visual"">Clip 2<p>Press ""L""</p></div>
            </center>
            <p style=""text-align:center"">Which clip sounds more like someone who was born in Boston?</p>","null","","","","","","","","13","F5_03","M4_03","F5","M4","female","male","It was a totally new experience to me.","they didn't really respond","long","1","1","",""
"","","","","","audio-keyboard-response","58","3010385","0.0-58.0","","","","","","","","","","","","null","../audio/F2_03.WAV","null","F2_03","F2","female","1","2.078781","4.811","But it was illegal at that time, and I didn't know that.","","","","","","","","","","","","","",""
"","","","","","audio-keyboard-response","59","3014501","0.0-59.0","","","","","","","","","","","","null","../audio/F3_04.WAV","l","F3_04","F3","female","2","4.115500","2.430","they would also know just because it's easier to identify families.","","","","","","","","","","","","","",""
"","","","","","html-keyboard-response","60","3016522","0.0-60.0","","","","","","","","","","","","174","
            <center>
                <div id=""clip1"" class=""visual"">Clip 1<p>Press ""S""</p></div>
                <div id=""clip2"" class=""visual"">Clip 2<p>Press ""L""</p></div>
            </center>
            <p style=""text-align:center"">Which clip sounds more like someone who was born in Boston?</p>","l","","","","","","","","14","F2_03","F3_04","F2","F3","female","female","But it was illegal at that time, and I didn't know that.","they would also know just because it's easier to identify families.","long","1","1","",""
"","","","","","audio-keyboard-response","61","3021707","0.0-61.0","","","","","","","","","","","","null","../audio/F1_04.WAV","null","F1_04","F1","female","1","3.175875","3.149","but majority of the time people offer to pick me up.","","","","","","","","","","","","","",""
"","","","","","audio-keyboard-response","62","3025121","0.0-62.0","","","","","","","","","","","","null","../audio/F5_04.WAV","l","F5_04","F5","female","2","3.404396","2.056","After half a year, I start full-time.","","","","","","","","","","","","","",""
"","","","","","html-keyboard-response","63","3027132","0.0-63.0","","","","","","","","","","","","146","
            <center>
                <div id=""clip1"" class=""visual"">Clip 1<p>Press ""S""</p></div>
                <div id=""clip2"" class=""visual"">Clip 2<p>Press ""L""</p></div>
            </center>
            <p style=""text-align:center"">Which clip sounds more like someone who was born in Boston?</p>","l","","","","","","","","15","F1_04","F5_04","F1","F5","female","female","but majority of the time people offer to pick me up.","After half a year, I start full-time.","long","1","1","",""
"","","","","","audio-keyboard-response","64","3031329","0.0-64.0","","","","","","","","","","","","null","../audio/M2_04.WAV","null","M2_04","M2","male","1","2.180729","2.751","People just focus on making money.","","","","","","","","","","","","","",""
"","","","","","audio-keyboard-response","65","3033791","0.0-65.0","","","","","","","","","","","","null","../audio/F1_03.WAV","s","F1_03","F1","female","2","2.456333","2.442","I end up going to high school.","","","","","","","","","","","","","",""
"","","","","","html-keyboard-response","66","3035805","0.0-66.0","","","","","","","","","","","","997","
            <center>
                <div id=""clip1"" class=""visual"">Clip 1<p>Press ""S""</p></div>
                <div id=""clip2"" class=""visual"">Clip 2<p>Press ""L""</p></div>
            </center>
            <p style=""text-align:center"">Which clip sounds more like someone who was born in Boston?</p>","s","","","","","","","","16","M2_04","F1_03","M2","F1","male","female","People just focus on making money.","I end up going to high school.","long","1","1","",""
"","","","","","audio-keyboard-response","67","3040772","0.0-67.0","","","","","","","","","","","","null","../audio/F3_03.WAV","null","F3_03","F3","female","1","2.959219","2.028","So initially my father said no.","","","","","","","","","","","","","",""
"","","","","","audio-keyboard-response","68","3044451","0.0-68.0","","","","","","","","","","","","null","../audio/F4_03.WAV","null","F4_03","F4","female","2","3.670938","2.724","Yeah, it was an apartment building. It was like a one-bedroom","","","","","","","","","","","","","",""
"","","","","","html-keyboard-response","69","3046466","0.0-69.0","","","","","","","","","","","","null","
            <center>
                <div id=""clip1"" class=""visual"">Clip 1<p>Press ""S""</p></div>
                <div id=""clip2"" class=""visual"">Clip 2<p>Press ""L""</p></div>
            </center>
            <p style=""text-align:center"">Which clip sounds more like someone who was born in Boston?</p>","s","","","","","","","","17","F3_03","F4_03","F3","F4","female","female","So initially my father said no.","Yeah, it was an apartment building. It was like a one-bedroom","long","1","1","",""
"","","","","","audio-keyboard-response","70","3051512","0.0-70.0","","","","","","","","","","","","null","../audio/M2_03.WAV","null","M2_03","M2","male","1","3.026990","2.643","The airport is basically a one-story building.","","","","","","","","","","","","","",""
"","","","","","audio-keyboard-response","71","3054900","0.0-71.0","","","","","","","","","","","","null","../audio/M3_03.WAV","s","M3_03","M3","male","2","3.378094","3.553","Probably you heard on the radio or on the news, they are downsizing.","","","","","","","","","","","","","",""
"","","","","","html-keyboard-response","72","3056911","0.0-72.0","","","","","","","","","","","","191","
            <center>
                <div id=""clip1"" class=""visual"">Clip 1<p>Press ""S""</p></div>
                <div id=""clip2"" class=""visual"">Clip 2<p>Press ""L""</p></div>
            </center>
            <p style=""text-align:center"">Which clip sounds more like someone who was born in Boston?</p>","s","","","","","","","","18","M2_03","M3_03","M2","M3","male","male","The airport is basically a one-story building.","Probably you heard on the radio or on the news, they are downsizing.","long","1","1","",""
"","","","","","audio-keyboard-response","73","3061492","0.0-73.0","","","","","","","","","","","","null","../audio/M3_04.WAV","null","M3_04","M3","male","1","2.564635","3.508","You had to learn about what they're talking about.","","","","","","","","","","","","","",""
"","","","","","audio-keyboard-response","74","3062980","0.0-74.0","","","","","","","","","","","","null","../audio/M1_03.WAV","l","M1_03","M1","male","2","1.480896","2.701","you kind of get spoiled.","","","","","","","","","","","","","",""
"","","","","","html-keyboard-response","75","3064986","0.0-75.0","","","","","","","","","","","","1919","
            <center>
                <div id=""clip1"" class=""visual"">Clip 1<p>Press ""S""</p></div>
                <div id=""clip2"" class=""visual"">Clip 2<p>Press ""L""</p></div>
            </center>
            <p style=""text-align:center"">Which clip sounds more like someone who was born in Boston?</p>","l","","","","","","","","19","M3_04","M1_03","M3","M1","male","male","You had to learn about what they're talking about.","you kind of get spoiled.","long","1","1","",""
"","","","","","audio-keyboard-response","76","3071363","0.0-76.0","","","","","","","","","","","","null","../audio/M5_03.WAV","null","M5_03","M5","male","1","4.375990","1.829","So we start transporting, moving kids outside of the neighborhood.","","","","","","","","","","","","","",""
"","","","","","audio-keyboard-response","77","3074272","0.0-77.0","","","","","","","","","","","","null","../audio/F2_04.WAV","s","F2_04","F2","female","2","2.902938","4.134","They buy a whole pig and then they eat their way through it.","","","","","","","","","","","","","",""
"","","","","","html-keyboard-response","78","3076281","0.0-78.0","","","","","","","","","","","","594","
            <center>
                <div id=""clip1"" class=""visual"">Clip 1<p>Press ""S""</p></div>
                <div id=""clip2"" class=""visual"">Clip 2<p>Press ""L""</p></div>
            </center>
            <p style=""text-align:center"">Which clip sounds more like someone who was born in Boston?</p>","s","","","","","","","","20","M5_03","F2_04","M5","F2","male","female","So we start transporting, moving kids outside of the neighborhood.","They buy a whole pig and then they eat their way through it.","long","1","1","",""
"","","","","","audio-keyboard-response","79","3080860","0.0-79.0","","","","","","","","","","","","null","../audio/M3_04.WAV","null","M3_04","M3","male","1","2.564635","3.508","You had to learn about what they're talking about.","","","","","","","","","","","","","",""
"","","","","","audio-keyboard-response","80","3084037","0.0-80.0","","","","","","","","","","","","null","../audio/F1_04.WAV","l","F1_04","F1","female","2","3.175875","3.149","but majority of the time people offer to pick me up.","","","","","","","","","","","","","",""
"","","","","","html-keyboard-response","81","3086046","0.0-81.0","","","","","","","","","","","","767","
            <center>
                <div id=""clip1"" class=""visual"">Clip 1<p>Press ""S""</p></div>
                <div id=""clip2"" class=""visual"">Clip 2<p>Press ""L""</p></div>
            </center>
            <p style=""text-align:center"">Which clip sounds more like someone who was born in Boston?</p>","l","","","","","","","","1","M3_04","F1_04","M3","F1","male","female","You had to learn about what they're talking about.","but majority of the time people offer to pick me up.","long","2","1","",""
"","","","","","audio-keyboard-response","82","3091442","0.0-82.0","","","","","","","","","","","","null","../audio/M3_03.WAV","null","M3_03","M3","male","1","3.378094","3.553","Probably you heard on the radio or on the news, they are downsizing.","","","","","","","","","","","","","",""
"","","","","","audio-keyboard-response","83","3094411","0.0-83.0","","","","","","","","","","","","null","../audio/F3_03.WAV","l","F3_03","F3","female","2","2.959219","2.028","So initially my father said no.","","","","","","","","","","","","","",""
"","","","","","html-keyboard-response","84","3096423","0.0-84.0","","","","","","","","","","","","136","
            <center>
                <div id=""clip1"" class=""visual"">Clip 1<p>Press ""S""</p></div>
                <div id=""clip2"" class=""visual"">Clip 2<p>Press ""L""</p></div>
            </center>
            <p style=""text-align:center"">Which clip sounds more like someone who was born in Boston?</p>","l","","","","","","","","2","M3_03","F3_03","M3","F3","male","female","Probably you heard on the radio or on the news, they are downsizing.","So initially my father said no.","long","2","1","",""
"","","","","","audio-keyboard-response","85","3100505","0.0-85.0","","","","","","","","","","","","null","../audio/F2_03.WAV","null","F2_03","F2","female","1","2.078781","4.811","But it was illegal at that time, and I didn't know that.","","","","","","","","","","","","","",""
"","","","","","audio-keyboard-response","86","3102692","0.0-86.0","","","","","","","","","","","","null","../audio/M2_04.WAV","s","M2_04","M2","male","2","2.180729","2.751","People just focus on making money.","","","","","","","","","","","","","",""
"","","","","","html-keyboard-response","87","3104699","0.0-87.0","","","","","","","","","","","","1039","
            <center>
                <div id=""clip1"" class=""visual"">Clip 1<p>Press ""S""</p></div>
                <div id=""clip2"" class=""visual"">Clip 2<p>Press ""L""</p></div>
            </center>
            <p style=""text-align:center"">Which clip sounds more like someone who was born in Boston?</p>","s","","","","","","","","3","F2_03","M2_04","F2","M2","female","male","But it was illegal at that time, and I didn't know that.","People just focus on making money.","long","2","1","",""
"","","","","","audio-keyboard-response","88","3109609","0.0-88.0","","","","","","","","","","","","null","../audio/F2_04.WAV","null","F2_04","F2","female","1","2.902938","4.134","They buy a whole pig and then they eat their way through it.","","","","","","","","","","","","","",""
"","","","","","audio-keyboard-response","89","3113281","0.0-89.0","","","","","","","","","","","","null","../audio/F4_03.WAV","s","F4_03","F4","female","2","3.670938","2.724","Yeah, it was an apartment building. It was like a one-bedroom","","","","","","","","","","","","","",""
"","","","","","html-keyboard-response","90","3115293","0.0-90.0","","","","","","","","","","","","883","
            <center>
                <div id=""clip1"" class=""visual"">Clip 1<p>Press ""S""</p></div>
                <div id=""clip2"" class=""visual"">Clip 2<p>Press ""L""</p></div>
            </center>
            <p style=""text-align:center"">Which clip sounds more like someone who was born in Boston?</p>","s","","","","","","","","4","F2_04","F4_03","F2","F4","female","female","They buy a whole pig and then they eat their way through it.","Yeah, it was an apartment building. It was like a one-bedroom","long","2","1","",""
"","","","","","audio-keyboard-response","91","3118827","0.0-91.0","","","","","","","","","","","","null","../audio/M1_04.WAV","null","M1_04","M1","male","1","1.508312","4.640","It's a really nice place to live.","","","","","","","","","","","","","",""
"","","","","","audio-keyboard-response","92","3122822","0.0-92.0","","","","","","","","","","","","null","../audio/F4_04.WAV","l","F4_04","F4","female","2","3.988719","3.509","So when I got in, I knew that I can take the train, it was easy to commute.","","","","","","","","","","","","","",""
"","","","","","html-keyboard-response","93","3124826","0.0-93.0","","","","","","","","","","","","331","
            <center>
                <div id=""clip1"" class=""visual"">Clip 1<p>Press ""S""</p></div>
                <div id=""clip2"" class=""visual"">Clip 2<p>Press ""L""</p></div>
            </center>
            <p style=""text-align:center"">Which clip sounds more like someone who was born in Boston?</p>","l","","","","","","","","5","M1_04","F4_04","M1","F4","male","female","It's a really nice place to live.","So when I got in, I knew that I can take the train, it was easy to commute.","long","2","1","",""
"","","","","","audio-keyboard-response","94","3130242","0.0-94.0","","","","","","","","","","","","null","../audio/F5_04.WAV","null","F5_04","F5","female","1","3.404396","2.056","After half a year, I start full-time.","","","","","","","","","","","","","",""
"","","","","","audio-keyboard-response","95","3133271","0.0-95.0","","","","","","","","","","","","null","../audio/M2_03.WAV","l","M2_03","M2","male","2","3.026990","2.643","The airport is basically a one-story building.","","","","","","","","","","","","","",""
"","","","","","html-keyboard-response","96","3135281","0.0-96.0","","","","","","","","","","","","444","
            <center>
                <div id=""clip1"" class=""visual"">Clip 1<p>Press ""S""</p></div>
                <div id=""clip2"" class=""visual"">Clip 2<p>Press ""L""</p></div>
            </center>
            <p style=""text-align:center"">Which clip sounds more like someone who was born in Boston?</p>","l","","","","","","","","6","F5_04","M2_03","F5","M2","female","male","After half a year, I start full-time.","The airport is basically a one-story building.","long","2","1","",""
"","","","","","audio-keyboard-response","97","3140466","0.0-97.0","","","","","","","","","","","","null","../audio/F5_03.WAV","null","F5_03","F5","female","1","3.162094","2.530","It was a totally new experience to me.","","","","","","","","","","","","","",""
"","","","","","audio-keyboard-response","98","3142030","0.0-98.0","","","","","","","","","","","","null","../audio/M5_04.WAV","s","M5_04","M5","male","2","1.560854","3.204","and the summer was cold.","","","","","","","","","","","","","",""
"","","","","","html-keyboard-response","99","3144042","0.0-99.0","","","","","","","","","","","","837","
            <center>
                <div id=""clip1"" class=""visual"">Clip 1<p>Press ""S""</p></div>
                <div id=""clip2"" class=""visual"">Clip 2<p>Press ""L""</p></div>
            </center>
            <p style=""text-align:center"">Which clip sounds more like someone who was born in Boston?</p>","s","","","","","","","","7","F5_03","M5_04","F5","M5","female","male","It was a totally new experience to me.","and the summer was cold.","long","2","1","",""
"","","","","","audio-keyboard-response","100","3150182","0.0-100.0","","","","","","","","","","","","null","../audio/F3_04.WAV","null","F3_04","F3","female","1","4.115500","2.430","they would also know just because it's easier to identify families.","","","","","","","","","","","","","",""
"","","","","","audio-keyboard-response","101","3154562","0.0-101.0","","","","","","","","","","","","null","../audio/M5_03.WAV","l","M5_03","M5","male","2","4.375990","1.829","So we start transporting, moving kids outside of the neighborhood.","","","","","","","","","","","","","",""
"","","","","","html-keyboard-response","102","3156566","0.0-102.0","","","","","","","","","","","","241","
            <center>
                <div id=""clip1"" class=""visual"">Clip 1<p>Press ""S""</p></div>
                <div id=""clip2"" class=""visual"">Clip 2<p>Press ""L""</p></div>
            </center>
            <p style=""text-align:center"">Which clip sounds more like someone who was born in Boston?</p>","l","","","","","","","","8","F3_04","M5_03","F3","M5","female","male","they would also know just because it's easier to identify families.","So we start transporting, moving kids outside of the neighborhood.","long","2","1","",""
"","","","","","audio-keyboard-response","103","3160061","0.0-103.0","","","","","","","","","","","","null","../audio/M1_03.WAV","null","M1_03","M1","male","1","1.480896","2.701","you kind of get spoiled.","","","","","","","","","","","","","",""
"","","","","","audio-keyboard-response","104","3162522","0.0-104.0","","","","","","","","","","","","null","../audio/F1_03.WAV","s","F1_03","F1","female","2","2.456333","2.442","I end up going to high school.","","","","","","","","","","","","","",""
"","","","","","html-keyboard-response","105","3164526","0.0-105.0","","","","","","","","","","","","1082","
            <center>
                <div id=""clip1"" class=""visual"">Clip 1<p>Press ""S""</p></div>
                <div id=""clip2"" class=""visual"">Clip 2<p>Press ""L""</p></div>
            </center>
            <p style=""text-align:center"">Which clip sounds more like someone who was born in Boston?</p>","s","","","","","","","","9","M1_03","F1_03","M1","F1","male","female","you kind of get spoiled.","I end up going to high school.","long","2","1","",""
"","","","","","audio-keyboard-response","106","3168671","0.0-106.0","","","","","","","","","","","","null","../audio/M4_03.WAV","null","M4_03","M4","male","1","2.137188","1.872","they didn't really respond","","","","","","","","","","","","","",""
"","","","","","audio-keyboard-response","107","3170461","0.0-107.0","","","","","","","","","","","","null","../audio/M4_04.WAV","l","M4_04","M4","male","2","1.785187","3.361","I'm still struggling to be honest.","","","","","","","","","","","","","",""
"","","","","","html-keyboard-response","108","3172470","0.0-108.0","","","","","","","","","","","","390","
            <center>
                <div id=""clip1"" class=""visual"">Clip 1<p>Press ""S""</p></div>
                <div id=""clip2"" class=""visual"">Clip 2<p>Press ""L""</p></div>
            </center>
            <p style=""text-align:center"">Which clip sounds more like someone who was born in Boston?</p>","l","","","","","","","","10","M4_03","M4_04","M4","M4","male","male","they didn't really respond","I'm still struggling to be honest.","long","2","1","",""
"","","","","","audio-keyboard-response","109","3178153","0.0-109.0","","","","","","","","","","","","null","../audio/F4_03.WAV","null","F4_03","F4","female","1","3.670938","2.724","Yeah, it was an apartment building. It was like a one-bedroom","","","","","","","","","","","","","",""
"","","","","","audio-keyboard-response","110","3179943","0.0-110.0","","","","","","","","","","","","null","../audio/M4_04.WAV","s","M4_04","M4","male","2","1.785187","3.361","I'm still struggling to be honest.","","","","","","","","","","","","","",""
"","","","","","html-keyboard-response","111","3181949","0.0-111.0","","","","","","","","","","","","1115","
            <center>
                <div id=""clip1"" class=""visual"">Clip 1<p>Press ""S""</p></div>
                <div id=""clip2"" class=""visual"">Clip 2<p>Press ""L""</p></div>
            </center>
            <p style=""text-align:center"">Which clip sounds more like someone who was born in Boston?</p>","s","","","","","","","","11","F4_03","M4_04","F4","M4","female","male","Yeah, it was an apartment building. It was like a one-bedroom","I'm still struggling to be honest.","long","2","1","",""
"","","","","","audio-keyboard-response","112","3186526","0.0-112.0","","","","","","","","","","","","null","../audio/M3_04.WAV","null","M3_04","M3","male","1","2.564635","3.508","You had to learn about what they're talking about.","","","","","","","","","","","","","",""
"","","","","","audio-keyboard-response","113","3188041","0.0-113.0","","","","","","","","","","","","null","../audio/M1_04.WAV","s","M1_04","M1","male","2","1.508312","4.640","It's a really nice place to live.","","","","","","","","","","","","","",""
"","","","","","html-keyboard-response","114","3190044","0.0-114.0","","","","","","","","","","","","1626","
            <center>
                <div id=""clip1"" class=""visual"">Clip 1<p>Press ""S""</p></div>
                <div id=""clip2"" class=""visual"">Clip 2<p>Press ""L""</p></div>
            </center>
            <p style=""text-align:center"">Which clip sounds more like someone who was born in Boston?</p>","s","","","","","","","","12","M3_04","M1_04","M3","M1","male","male","You had to learn about what they're talking about.","It's a really nice place to live.","long","2","1","",""
"","","","","","audio-keyboard-response","115","3196192","0.0-115.0","","","","","","","","","","","","null","../audio/F3_04.WAV","null","F3_04","F3","female","1","4.115500","2.430","they would also know just because it's easier to identify families.","","","","","","","","","","","","","",""
"","","","","","audio-keyboard-response","116","3199370","0.0-116.0","","","","","","","","","","","","null","../audio/F1_04.WAV","l","F1_04","F1","female","2","3.175875","3.149","but majority of the time people offer to pick me up.","","","","","","","","","","","","","",""
"","","","","","html-keyboard-response","117","3201385","0.0-117.0","","","","","","","","","","","","761","
            <center>
                <div id=""clip1"" class=""visual"">Clip 1<p>Press ""S""</p></div>
                <div id=""clip2"" class=""visual"">Clip 2<p>Press ""L""</p></div>
            </center>
            <p style=""text-align:center"">Which clip sounds more like someone who was born in Boston?</p>","l","","","","","","","","13","F3_04","F1_04","F3","F1","female","female","they would also know just because it's easier to identify families.","but majority of the time people offer to pick me up.","long","2","1","",""
"","","","","","audio-keyboard-response","118","3207402","0.0-118.0","","","","","","","","","","","","null","../audio/F4_04.WAV","null","F4_04","F4","female","1","3.988719","3.509","So when I got in, I knew that I can take the train, it was easy to commute.","","","","","","","","","","","","","",""
"","","","","","audio-keyboard-response","119","3210311","0.0-119.0","","","","","","","","","","","","null","../audio/F2_04.WAV","s","F2_04","F2","female","2","2.902938","4.134","They buy a whole pig and then they eat their way through it.","","","","","","","","","","","","","",""
"","","","","","html-keyboard-response","120","3212322","0.0-120.0","","","","","","","","","","","","75","
            <center>
                <div id=""clip1"" class=""visual"">Clip 1<p>Press ""S""</p></div>
                <div id=""clip2"" class=""visual"">Clip 2<p>Press ""L""</p></div>
            </center>
            <p style=""text-align:center"">Which clip sounds more like someone who was born in Boston?</p>","s","","","","","","","","14","F4_04","F2_04","F4","F2","female","female","So when I got in, I knew that I can take the train, it was easy to commute.","They buy a whole pig and then they eat their way through it.","long","2","1","",""
"","","","","","audio-keyboard-response","121","3215815","0.0-121.0","","","","","","","","","","","","null","../audio/M1_03.WAV","null","M1_03","M1","male","1","1.480896","2.701","you kind of get spoiled.","","","","","","","","","","","","","",""
"","","","","","audio-keyboard-response","122","3219197","0.0-122.0","","","","","","","","","","","","null","../audio/M3_03.WAV","s","M3_03","M3","male","2","3.378094","3.553","Probably you heard on the radio or on the news, they are downsizing.","","","","","","","","","","","","","",""
"","","","","","html-keyboard-response","123","3221202","0.0-123.0","","","","","","","","","","","","406","
            <center>
                <div id=""clip1"" class=""visual"">Clip 1<p>Press ""S""</p></div>
                <div id=""clip2"" class=""visual"">Clip 2<p>Press ""L""</p></div>
            </center>
            <p style=""text-align:center"">Which clip sounds more like someone who was born in Boston?</p>","s","","","","","","","","15","M1_03","M3_03","M1","M3","male","male","you kind of get spoiled.","Probably you heard on the radio or on the news, they are downsizing.","long","2","1","",""
"","","","","","audio-keyboard-response","124","3225293","0.0-124.0","","","","","","","","","","","","null","../audio/F2_03.WAV","null","F2_03","F2","female","1","2.078781","4.811","But it was illegal at that time, and I didn't know that.","","","","","","","","","","","","","",""
"","","","","","audio-keyboard-response","125","3228323","0.0-125.0","","","","","","","","","","","","null","../audio/M2_03.WAV","null","M2_03","M2","male","2","3.026990","2.643","The airport is basically a one-story building.","","","","","","","","","","","","","",""
"","","","","","html-keyboard-response","126","3230331","0.0-126.0","","","","","","","","","","","","null","
            <center>
                <div id=""clip1"" class=""visual"">Clip 1<p>Press ""S""</p></div>
                <div id=""clip2"" class=""visual"">Clip 2<p>Press ""L""</p></div>
            </center>
            <p style=""text-align:center"">Which clip sounds more like someone who was born in Boston?</p>","null","","","","","","","","16","F2_03","M2_03","F2","M2","female","male","But it was illegal at that time, and I didn't know that.","The airport is basically a one-story building.","long","2","1","",""
"","","","","","audio-keyboard-response","127","3235307","0.0-127.0","","","","","","","","","","","","null","../audio/F3_03.WAV","null","F3_03","F3","female","1","2.959219","2.028","So initially my father said no.","","","","","","","","","","","","","",""
"","","","","","audio-keyboard-response","128","3236872","0.0-128.0","","","","","","","","","","","","null","../audio/M5_04.WAV","null","M5_04","M5","male","2","1.560854","3.204","and the summer was cold.","","","","","","","","","","","","","",""
"","","","","","html-keyboard-response","129","3238875","0.0-129.0","","","","","","","","","","","","null","
            <center>
                <div id=""clip1"" class=""visual"">Clip 1<p>Press ""S""</p></div>
                <div id=""clip2"" class=""visual"">Clip 2<p>Press ""L""</p></div>
            </center>
            <p style=""text-align:center"">Which clip sounds more like someone who was born in Boston?</p>","null","","","","","","","","17","F3_03","M5_04","F3","M5","female","male","So initially my father said no.","and the summer was cold.","long","2","1","",""
"","","","","","audio-keyboard-response","130","3243054","0.0-130.0","","","","","","","","","","","","null","../audio/M4_03.WAV","null","M4_03","M4","male","1","2.137188","1.872","they didn't really respond","","","","","","","","","","","","","",""
"","","","","","audio-keyboard-response","131","3245240","0.0-131.0","","","","","","","","","","","","null","../audio/M2_04.WAV","s","M2_04","M2","male","2","2.180729","2.751","People just focus on making money.","","","","","","","","","","","","","",""
"","","","","","html-keyboard-response","132","3247242","0.0-132.0","","","","","","","","","","","","59","
            <center>
                <div id=""clip1"" class=""visual"">Clip 1<p>Press ""S""</p></div>
                <div id=""clip2"" class=""visual"">Clip 2<p>Press ""L""</p></div>
            </center>
            <p style=""text-align:center"">Which clip sounds more like someone who was born in Boston?</p>","s","","","","","","","","18","M4_03","M2_04","M4","M2","male","male","they didn't really respond","People just focus on making money.","long","2","1","",""
"","","","","","audio-keyboard-response","133","3251700","0.0-133.0","","","","","","","","","","","","null","../audio/F1_03.WAV","null","F1_03","F1","female","1","2.456333","2.442","I end up going to high school.","","","","","","","","","","","","","",""
"","","","","","audio-keyboard-response","134","3254872","0.0-134.0","","","","","","","","","","","","null","../audio/F5_03.WAV","l","F5_03","F5","female","2","3.162094","2.530","It was a totally new experience to me.","","","","","","","","","","","","","",""
"","","","","","html-keyboard-response","135","3256876","0.0-135.0","","","","","","","","","","","","11","
            <center>
                <div id=""clip1"" class=""visual"">Clip 1<p>Press ""S""</p></div>
                <div id=""clip2"" class=""visual"">Clip 2<p>Press ""L""</p></div>
            </center>
            <p style=""text-align:center"">Which clip sounds more like someone who was born in Boston?</p>","l","","","","","","","","19","F1_03","F5_03","F1","F5","female","female","I end up going to high school.","It was a totally new experience to me.","long","2","1","",""
"","","","","","audio-keyboard-response","136","3262296","0.0-136.0","","","","","","","","","","","","null","../audio/F5_04.WAV","null","F5_04","F5","female","1","3.404396","2.056","After half a year, I start full-time.","","","","","","","","","","","","","",""
"","","","","","audio-keyboard-response","137","3266682","0.0-137.0","","","","","","","","","","","","null","../audio/M5_03.WAV","s","M5_03","M5","male","2","4.375990","1.829","So we start transporting, moving kids outside of the neighborhood.","","","","","","","","","","","","","",""
"","","","","","html-keyboard-response","138","3268684","0.0-138.0","","","","","","","","","","","","41","
            <center>
                <div id=""clip1"" class=""visual"">Clip 1<p>Press ""S""</p></div>
                <div id=""clip2"" class=""visual"">Clip 2<p>Press ""L""</p></div>
            </center>
            <p style=""text-align:center"">Which clip sounds more like someone who was born in Boston?</p>","s","","","","","","","","20","F5_04","M5_03","F5","M5","female","male","After half a year, I start full-time.","So we start transporting, moving kids outside of the neighborhood.","long","2","1","",""
"","","","","","audio-keyboard-response","139","3273167","0.0-139.0","","","","","","","","","","","","null","../audio/F1_03.WAV","null","F1_03","F1","female","1","2.456333","2.442","I end up going to high school.","","","","","","","","","","","","","",""
"","","","","","audio-keyboard-response","140","3275250","0.0-140.0","","","","","","","","","","","","null","../audio/F2_03.WAV","null","F2_03","F2","female","2","2.078781","4.811","But it was illegal at that time, and I didn't know that.","","","","","","","","","","","","","",""
"","","","","","html-keyboard-response","141","3277260","0.0-141.0","","","","","","","","","","","","null","
            <center>
                <div id=""clip1"" class=""visual"">Clip 1<p>Press ""S""</p></div>
                <div id=""clip2"" class=""visual"">Clip 2<p>Press ""L""</p></div>
            </center>
            <p style=""text-align:center"">Which clip sounds more like someone who was born in Boston?</p>","null","","","","","","","","1","F1_03","F2_03","F1","F2","female","female","I end up going to high school.","But it was illegal at that time, and I didn't know that.","long","3","1","",""
"","","","","","audio-keyboard-response","142","3282461","0.0-142.0","","","","","","","","","","","","null","../audio/F1_04.WAV","null","F1_04","F1","female","1","3.175875","3.149","but majority of the time people offer to pick me up.","","","","","","","","","","","","","",""
"","","","","","audio-keyboard-response","143","3286135","0.0-143.0","","","","","","","","","","","","null","../audio/F4_03.WAV","l","F4_03","F4","female","2","3.670938","2.724","Yeah, it was an apartment building. It was like a one-bedroom","","","","","","","","","","","","","",""
"","","","","","html-keyboard-response","144","3288149","0.0-144.0","","","","","","","","","","","","188","
            <center>
                <div id=""clip1"" class=""visual"">Clip 1<p>Press ""S""</p></div>
                <div id=""clip2"" class=""visual"">Clip 2<p>Press ""L""</p></div>
            </center>
            <p style=""text-align:center"">Which clip sounds more like someone who was born in Boston?</p>","l","","","","","","","","2","F1_04","F4_03","F1","F4","female","female","but majority of the time people offer to pick me up.","Yeah, it was an apartment building. It was like a one-bedroom","long","3","1","",""
"","","","","","audio-keyboard-response","145","3293584","0.0-145.0","","","","","","","","","","","","null","../audio/F5_04.WAV","null","F5_04","F5","female","1","3.404396","2.056","After half a year, I start full-time.","","","","","","","","","","","","","",""
"","","","","","audio-keyboard-response","146","3297961","0.0-146.0","","","","","","","","","","","","null","../audio/M5_03.WAV","null","M5_03","M5","male","2","4.375990","1.829","So we start transporting, moving kids outside of the neighborhood.","","","","","","","","","","","","","",""
"","","","","","html-keyboard-response","147","3299972","0.0-147.0","","","","","","","","","","","","null","
            <center>
                <div id=""clip1"" class=""visual"">Clip 1<p>Press ""S""</p></div>
                <div id=""clip2"" class=""visual"">Clip 2<p>Press ""L""</p></div>
            </center>
            <p style=""text-align:center"">Which clip sounds more like someone who was born in Boston?</p>","null","","","","","","","","3","F5_04","M5_03","F5","M5","female","male","After half a year, I start full-time.","So we start transporting, moving kids outside of the neighborhood.","long","3","1","",""
"","","","","","audio-keyboard-response","148","3303544","0.0-148.0","","","","","","","","","","","","null","../audio/M5_04.WAV","null","M5_04","M5","male","1","1.560854","3.204","and the summer was cold.","","","","","","","","","","","","","",""
"","","","","","audio-keyboard-response","149","3306112","0.0-149.0","","","","","","","","","","","","null","../audio/M3_04.WAV","null","M3_04","M3","male","2","2.564635","3.508","You had to learn about what they're talking about.","","","","","","","","","","","","","",""
"","","","","","html-keyboard-response","150","3308114","0.0-150.0","","","","","","","","","","","","null","
            <center>
                <div id=""clip1"" class=""visual"">Clip 1<p>Press ""S""</p></div>
                <div id=""clip2"" class=""visual"">Clip 2<p>Press ""L""</p></div>
            </center>
            <p style=""text-align:center"">Which clip sounds more like someone who was born in Boston?</p>","null","","","","","","","","4","M5_04","M3_04","M5","M3","male","male","and the summer was cold.","You had to learn about what they're talking about.","long","3","1","",""
"","","","","","audio-keyboard-response","151","3311916","0.0-151.0","","","","","","","","","","","","null","../audio/M4_04.WAV","null","M4_04","M4","male","1","1.785187","3.361","I'm still struggling to be honest.","","","","","","","","","","","","","",""
"","","","","","audio-keyboard-response","152","3314061","0.0-152.0","","","","","","","","","","","","null","../audio/M4_03.WAV","s","M4_03","M4","male","2","2.137188","1.872","they didn't really respond","","","","","","","","","","","","","",""
"","","","","","html-keyboard-response","153","3316077","0.0-153.0","","","","","","","","","","","","102","
            <center>
                <div id=""clip1"" class=""visual"">Clip 1<p>Press ""S""</p></div>
                <div id=""clip2"" class=""visual"">Clip 2<p>Press ""L""</p></div>
            </center>
            <p style=""text-align:center"">Which clip sounds more like someone who was born in Boston?</p>","s","","","","","","","","5","M4_04","M4_03","M4","M4","male","male","I'm still struggling to be honest.","they didn't really respond","long","3","1","",""
"","","","","","audio-keyboard-response","154","3320274","0.0-154.0","","","","","","","","","","","","null","../audio/M2_04.WAV","null","M2_04","M2","male","1","2.180729","2.751","People just focus on making money.","","","","","","","","","","","","","",""
"","","","","","audio-keyboard-response","155","3323441","0.0-155.0","","","","","","","","","","","","null","../audio/F5_03.WAV","s","F5_03","F5","female","2","3.162094","2.530","It was a totally new experience to me.","","","","","","","","","","","","","",""
"","","","","","html-keyboard-response","156","3325452","0.0-156.0","","","","","","","","","","","","817","
            <center>
                <div id=""clip1"" class=""visual"">Clip 1<p>Press ""S""</p></div>
                <div id=""clip2"" class=""visual"">Clip 2<p>Press ""L""</p></div>
            </center>
            <p style=""text-align:center"">Which clip sounds more like someone who was born in Boston?</p>","s","","","","","","","","6","M2_04","F5_03","M2","F5","male","female","People just focus on making money.","It was a totally new experience to me.","long","3","1","",""
"","","","","","audio-keyboard-response","157","3331576","0.0-157.0","","","","","","","","","","","","null","../audio/F3_04.WAV","null","F3_04","F3","female","1","4.115500","2.430","they would also know just because it's easier to identify families.","","","","","","","","","","","","","",""
"","","","","","audio-keyboard-response","158","3334536","0.0-158.0","","","","","","","","","","","","null","../audio/F3_03.WAV","l","F3_03","F3","female","2","2.959219","2.028","So initially my father said no.","","","","","","","","","","","","","",""
"","","","","","html-keyboard-response","159","3336537","0.0-159.0","","","","","","","","","","","","1452","
            <center>
                <div id=""clip1"" class=""visual"">Clip 1<p>Press ""S""</p></div>
                <div id=""clip2"" class=""visual"">Clip 2<p>Press ""L""</p></div>
            </center>
            <p style=""text-align:center"">Which clip sounds more like someone who was born in Boston?</p>","l","","","","","","","","7","F3_04","F3_03","F3","F3","female","female","they would also know just because it's easier to identify families.","So initially my father said no.","long","3","1","",""
"","","","","","audio-keyboard-response","160","3340077","0.0-160.0","","","","","","","","","","","","null","../audio/M1_04.WAV","null","M1_04","M1","male","1","1.508312","4.640","It's a really nice place to live.","","","","","","","","","","","","","",""
"","","","","","audio-keyboard-response","161","3343464","0.0-161.0","","","","","","","","","","","","null","../audio/M3_03.WAV","null","M3_03","M3","male","2","3.378094","3.553","Probably you heard on the radio or on the news, they are downsizing.","","","","","","","","","","","","","",""
"","","","","","html-keyboard-response","162","3345481","0.0-162.0","","","","","","","","","","","","null","
            <center>
                <div id=""clip1"" class=""visual"">Clip 1<p>Press ""S""</p></div>
                <div id=""clip2"" class=""visual"">Clip 2<p>Press ""L""</p></div>
            </center>
            <p style=""text-align:center"">Which clip sounds more like someone who was born in Boston?</p>","null","","","","","","","","8","M1_04","M3_03","M1","M3","male","male","It's a really nice place to live.","Probably you heard on the radio or on the news, they are downsizing.","long","3","1","",""
"","","","","","audio-keyboard-response","163","3350518","0.0-163.0","","","","","","","","","","","","null","../audio/M2_03.WAV","null","M2_03","M2","male","1","3.026990","2.643","The airport is basically a one-story building.","","","","","","","","","","","","","",""
"","","","","","audio-keyboard-response","164","3354511","0.0-164.0","","","","","","","","","","","","null","../audio/F4_04.WAV","l","F4_04","F4","female","2","3.988719","3.509","So when I got in, I knew that I can take the train, it was easy to commute.","","","","","","","","","","","","","",""
"","","","","","html-keyboard-response","165","3356523","0.0-165.0","","","","","","","","","","","","403","
            <center>
                <div id=""clip1"" class=""visual"">Clip 1<p>Press ""S""</p></div>
                <div id=""clip2"" class=""visual"">Clip 2<p>Press ""L""</p></div>
            </center>
            <p style=""text-align:center"">Which clip sounds more like someone who was born in Boston?</p>","l","","","","","","","","9","M2_03","F4_04","M2","F4","male","female","The airport is basically a one-story building.","So when I got in, I knew that I can take the train, it was easy to commute.","long","3","1","",""
"","","","","","audio-keyboard-response","166","3360019","0.0-166.0","","","","","","","","","","","","null","../audio/M1_03.WAV","null","M1_03","M1","male","1","1.480896","2.701","you kind of get spoiled.","","","","","","","","","","","","","",""
"","","","","","audio-keyboard-response","167","3362931","0.0-167.0","","","","","","","","","","","","null","../audio/F2_04.WAV","null","F2_04","F2","female","2","2.902938","4.134","They buy a whole pig and then they eat their way through it.","","","","","","","","","","","","","",""
"","","","","","html-keyboard-response","168","3364947","0.0-168.0","","","","","","","","","","","","null","
            <center>
                <div id=""clip1"" class=""visual"">Clip 1<p>Press ""S""</p></div>
                <div id=""clip2"" class=""visual"">Clip 2<p>Press ""L""</p></div>
            </center>
            <p style=""text-align:center"">Which clip sounds more like someone who was born in Boston?</p>","null","","","","","","","","10","M1_03","F2_04","M1","F2","male","female","you kind of get spoiled.","They buy a whole pig and then they eat their way through it.","long","3","1","",""
"","","","","","audio-keyboard-response","169","3371080","0.0-169.0","","","","","","","","","","","","null","../audio/F3_04.WAV","null","F3_04","F3","female","1","4.115500","2.430","they would also know just because it's easier to identify families.","","","","","","","","","","","","","",""
"","","","","","audio-keyboard-response","170","3373993","0.0-170.0","","","","","","","","","","","","null","../audio/F2_04.WAV","s","F2_04","F2","female","2","2.902938","4.134","They buy a whole pig and then they eat their way through it.","","","","","","","","","","","","","",""
"","","","","","html-keyboard-response","171","3375998","0.0-171.0","","","","","","","","","","","","1769","
            <center>
                <div id=""clip1"" class=""visual"">Clip 1<p>Press ""S""</p></div>
                <div id=""clip2"" class=""visual"">Clip 2<p>Press ""L""</p></div>
            </center>
            <p style=""text-align:center"">Which clip sounds more like someone who was born in Boston?</p>","s","","","","","","","","11","F3_04","F2_04","F3","F2","female","female","they would also know just because it's easier to identify families.","They buy a whole pig and then they eat their way through it.","long","3","1","",""
"","","","","","audio-keyboard-response","172","3379810","0.0-172.0","","","","","","","","","","","","null","../audio/M4_04.WAV","null","M4_04","M4","male","1","1.785187","3.361","I'm still struggling to be honest.","","","","","","","","","","","","","",""
"","","","","","audio-keyboard-response","173","3382375","0.0-173.0","","","","","","","","","","","","null","../audio/M3_04.WAV","l","M3_04","M3","male","2","2.564635","3.508","You had to learn about what they're talking about.","","","","","","","","","","","","","",""
"","","","","","html-keyboard-response","174","3384378","0.0-174.0","","","","","","","","","","","","1772","
            <center>
                <div id=""clip1"" class=""visual"">Clip 1<p>Press ""S""</p></div>
                <div id=""clip2"" class=""visual"">Clip 2<p>Press ""L""</p></div>
            </center>
            <p style=""text-align:center"">Which clip sounds more like someone who was born in Boston?</p>","l","","","","","","","","12","M4_04","M3_04","M4","M3","male","male","I'm still struggling to be honest.","You had to learn about what they're talking about.","long","3","1","",""
"","","","","","audio-keyboard-response","175","3390394","0.0-175.0","","","","","","","","","","","","null","../audio/F4_04.WAV","null","F4_04","F4","female","1","3.988719","3.509","So when I got in, I knew that I can take the train, it was easy to commute.","","","","","","","","","","","","","",""
"","","","","","audio-keyboard-response","176","3391879","0.0-176.0","","","","","","","","","","","","null","../audio/M1_03.WAV","s","M1_03","M1","male","2","1.480896","2.701","you kind of get spoiled.","","","","","","","","","","","","","",""
"","","","","","html-keyboard-response","177","3393890","0.0-177.0","","","","","","","","","","","","1803","
            <center>
                <div id=""clip1"" class=""visual"">Clip 1<p>Press ""S""</p></div>
                <div id=""clip2"" class=""visual"">Clip 2<p>Press ""L""</p></div>
            </center>
            <p style=""text-align:center"">Which clip sounds more like someone who was born in Boston?</p>","s","","","","","","","","13","F4_04","M1_03","F4","M1","female","male","So when I got in, I knew that I can take the train, it was easy to commute.","you kind of get spoiled.","long","3","1","",""
"","","","","","audio-keyboard-response","178","3397416","0.0-178.0","","","","","","","","","","","","null","../audio/M1_04.WAV","null","M1_04","M1","male","1","1.508312","4.640","It's a really nice place to live.","","","","","","","","","","","","","",""
"","","","","","audio-keyboard-response","179","3399557","0.0-179.0","","","","","","","","","","","","null","../audio/M4_03.WAV","s","M4_03","M4","male","2","2.137188","1.872","they didn't really respond","","","","","","","","","","","","","",""
"","","","","","html-keyboard-response","180","3401560","0.0-180.0","","","","","","","","","","","","1900","
            <center>
                <div id=""clip1"" class=""visual"">Clip 1<p>Press ""S""</p></div>
                <div id=""clip2"" class=""visual"">Clip 2<p>Press ""L""</p></div>
            </center>
            <p style=""text-align:center"">Which clip sounds more like someone who was born in Boston?</p>","s","","","","","","","","14","M1_04","M4_03","M1","M4","male","male","It's a really nice place to live.","they didn't really respond","long","3","1","",""
"","","","","","audio-keyboard-response","181","3407261","0.0-181.0","","","","","","","","","","","","null","../audio/F4_03.WAV","null","F4_03","F4","female","1","3.670938","2.724","Yeah, it was an apartment building. It was like a one-bedroom","","","","","","","","","","","","","",""
"","","","","","audio-keyboard-response","182","3410293","0.0-182.0","","","","","","","","","","","","null","../audio/M2_03.WAV","l","M2_03","M2","male","2","3.026990","2.643","The airport is basically a one-story building.","","","","","","","","","","","","","",""
"","","","","","html-keyboard-response","183","3412310","0.0-183.0","","","","","","","","","","","","318","
            <center>
                <div id=""clip1"" class=""visual"">Clip 1<p>Press ""S""</p></div>
                <div id=""clip2"" class=""visual"">Clip 2<p>Press ""L""</p></div>
            </center>
            <p style=""text-align:center"">Which clip sounds more like someone who was born in Boston?</p>","l","","","","","","","","15","F4_03","M2_03","F4","M2","female","male","Yeah, it was an apartment building. It was like a one-bedroom","The airport is basically a one-story building.","long","3","1","",""
"","","","","","audio-keyboard-response","184","3416422","0.0-184.0","","","","","","","","","","","","null","../audio/F2_03.WAV","null","F2_03","F2","female","1","2.078781","4.811","But it was illegal at that time, and I didn't know that.","","","","","","","","","","","","","",""
"","","","","","audio-keyboard-response","185","3419602","0.0-185.0","","","","","","","","","","","","null","../audio/F1_04.WAV","l","F1_04","F1","female","2","3.175875","3.149","but majority of the time people offer to pick me up.","","","","","","","","","","","","","",""
"","","","","","html-keyboard-response","186","3421605","0.0-186.0","","","","","","","","","","","","1105","
            <center>
                <div id=""clip1"" class=""visual"">Clip 1<p>Press ""S""</p></div>
                <div id=""clip2"" class=""visual"">Clip 2<p>Press ""L""</p></div>
            </center>
            <p style=""text-align:center"">Which clip sounds more like someone who was born in Boston?</p>","l","","","","","","","","16","F2_03","F1_04","F2","F1","female","female","But it was illegal at that time, and I didn't know that.","but majority of the time people offer to pick me up.","long","3","1","",""
"","","","","","audio-keyboard-response","187","3426080","0.0-187.0","","","","","","","","","","","","null","../audio/F1_03.WAV","null","F1_03","F1","female","1","2.456333","2.442","I end up going to high school.","","","","","","","","","","","","","",""
"","","","","","audio-keyboard-response","188","3429462","0.0-188.0","","","","","","","","","","","","null","../audio/M3_03.WAV","null","M3_03","M3","male","2","3.378094","3.553","Probably you heard on the radio or on the news, they are downsizing.","","","","","","","","","","","","","",""
"","","","","","html-keyboard-response","189","3431482","0.0-189.0","","","","","","","","","","","","null","
            <center>
                <div id=""clip1"" class=""visual"">Clip 1<p>Press ""S""</p></div>
                <div id=""clip2"" class=""visual"">Clip 2<p>Press ""L""</p></div>
            </center>
            <p style=""text-align:center"">Which clip sounds more like someone who was born in Boston?</p>","null","","","","","","","","17","F1_03","M3_03","F1","M3","female","male","I end up going to high school.","Probably you heard on the radio or on the news, they are downsizing.","long","3","1","",""
"","","","","","audio-keyboard-response","190","3435668","0.0-190.0","","","","","","","","","","","","null","../audio/M2_04.WAV","null","M2_04","M2","male","1","2.180729","2.751","People just focus on making money.","","","","","","","","","","","","","",""
"","","","","","audio-keyboard-response","191","3438632","0.0-191.0","","","","","","","","","","","","null","../audio/F3_03.WAV","s","F3_03","F3","female","2","2.959219","2.028","So initially my father said no.","","","","","","","","","","","","","",""
"","","","","","html-keyboard-response","192","3440653","0.0-192.0","","","","","","","","","","","","473","
            <center>
                <div id=""clip1"" class=""visual"">Clip 1<p>Press ""S""</p></div>
                <div id=""clip2"" class=""visual"">Clip 2<p>Press ""L""</p></div>
            </center>
            <p style=""text-align:center"">Which clip sounds more like someone who was born in Boston?</p>","s","","","","","","","","18","M2_04","F3_03","M2","F3","male","female","People just focus on making money.","So initially my father said no.","long","3","1","",""
"","","","","","audio-keyboard-response","193","3446079","0.0-193.0","","","","","","","","","","","","null","../audio/F5_04.WAV","null","F5_04","F5","female","1","3.404396","2.056","After half a year, I start full-time.","","","","","","","","","","","","","",""
"","","","","","audio-keyboard-response","194","3450456","0.0-194.0","","","","","","","","","","","","null","../audio/M5_03.WAV","s","M5_03","M5","male","2","4.375990","1.829","So we start transporting, moving kids outside of the neighborhood.","","","","","","","","","","","","","",""
"","","","","","html-keyboard-response","195","3452462","0.0-195.0","","","","","","","","","","","","189","
            <center>
                <div id=""clip1"" class=""visual"">Clip 1<p>Press ""S""</p></div>
                <div id=""clip2"" class=""visual"">Clip 2<p>Press ""L""</p></div>
            </center>
            <p style=""text-align:center"">Which clip sounds more like someone who was born in Boston?</p>","s","","","","","","","","19","F5_04","M5_03","F5","M5","female","male","After half a year, I start full-time.","So we start transporting, moving kids outside of the neighborhood.","long","3","1","",""
"","","","","","audio-keyboard-response","196","3457628","0.0-196.0","","","","","","","","","","","","null","../audio/F5_03.WAV","null","F5_03","F5","female","1","3.162094","2.530","It was a totally new experience to me.","","","","","","","","","","","","","",""
"","","","","","audio-keyboard-response","197","3459191","0.0-197.0","","","","","","","","","","","","null","../audio/M5_04.WAV","s","M5_04","M5","male","2","1.560854","3.204","and the summer was cold.","","","","","","","","","","","","","",""
"","","","","","html-keyboard-response","198","3461198","0.0-198.0","","","","","","","","","","","","268","
            <center>
                <div id=""clip1"" class=""visual"">Clip 1<p>Press ""S""</p></div>
                <div id=""clip2"" class=""visual"">Clip 2<p>Press ""L""</p></div>
            </center>
            <p style=""text-align:center"">Which clip sounds more like someone who was born in Boston?</p>","s","","","","","","","","20","F5_03","M5_04","F5","M5","female","male","It was a totally new experience to me.","and the summer was cold.","long","3","1","",""
"","","","","","audio-keyboard-response","199","3464391","0.0-199.0","","","","","","","","","","","","null","../audio/F3_02.WAV","null","F3_02","F3","female","1","1.165760","2.574","as homeless people.","","","","","","","","","","","","","",""
"","","","","","audio-keyboard-response","200","3466683","0.0-200.0","","","","","","","","","","","","null","../audio/F1_02.WAV","s","F1_02","F1","female","2","2.286385","2.187","clothes or fashion for that matter.","","","","","","","","","","","","","",""
"","","","","","html-keyboard-response","201","3468702","0.0-201.0","","","","","","","","","","","","697","
            <center>
                <div id=""clip1"" class=""visual"">Clip 1<p>Press ""S""</p></div>
                <div id=""clip2"" class=""visual"">Clip 2<p>Press ""L""</p></div>
            </center>
            <p style=""text-align:center"">Which clip sounds more like someone who was born in Boston?</p>","s","","","","","","","","1","F3_02","F1_02","F3","F1","female","female","as homeless people.","clothes or fashion for that matter.","short","4","1","",""
"","","","","","audio-keyboard-response","202","3474982","0.0-202.0","","","","","","","","","","","","null","../audio/F3_01.WAV","null","F3_01","F3","female","1","4.267563","1.875","my parents, my two sisters, and my two brothers.","","","","","","","","","","","","","",""
"","","","","","audio-keyboard-response","203","3476698","0.0-203.0","","","","","","","","","","","","null","../audio/M3_02.WAV","s","M3_02","M3","male","2","1.709750","2.924","And then on Sunday morning","","","","","","","","","","","","","",""
"","","","","","html-keyboard-response","204","3478711","0.0-204.0","","","","","","","","","","","","377","
            <center>
                <div id=""clip1"" class=""visual"">Clip 1<p>Press ""S""</p></div>
                <div id=""clip2"" class=""visual"">Clip 2<p>Press ""L""</p></div>
            </center>
            <p style=""text-align:center"">Which clip sounds more like someone who was born in Boston?</p>","s","","","","","","","","2","F3_01","M3_02","F3","M3","female","male","my parents, my two sisters, and my two brothers.","And then on Sunday morning","short","4","1","",""
"","","","","","audio-keyboard-response","205","3481952","0.0-205.0","","","","","","","","","","","","null","../audio/M1_01.WAV","null","M1_01","M1","male","1","1.220375","4.095","being in the medical field,","","","","","","","","","","","","","",""
"","","","","","audio-keyboard-response","206","3484691","0.0-206.0","","","","","","","","","","","","null","../audio/F1_01.WAV","s","F1_01","F1","female","2","2.729260","1.832","because of the limited space.","","","","","","","","","","","","","",""
"","","","","","html-keyboard-response","207","3486699","0.0-207.0","","","","","","","","","","","","16","
            <center>
                <div id=""clip1"" class=""visual"">Clip 1<p>Press ""S""</p></div>
                <div id=""clip2"" class=""visual"">Clip 2<p>Press ""L""</p></div>
            </center>
            <p style=""text-align:center"">Which clip sounds more like someone who was born in Boston?</p>","s","","","","","","","","3","M1_01","F1_01","M1","F1","male","female","being in the medical field,","because of the limited space.","short","4","1","",""
"","","","","","audio-keyboard-response","208","3491382","0.0-208.0","","","","","","","","","","","","null","../audio/M2_02.WAV","null","M2_02","M2","male","1","2.665333","3.001","But later on, when I traveled quite a bit,","","","","","","","","","","","","","",""
"","","","","","audio-keyboard-response","209","3493288","0.0-209.0","","","","","","","","","","","","null","../audio/F2_02.WAV","null","F2_02","F2","female","2","1.902969","2.627","And so my mother also","","","","","","","","","","","","","",""
"","","","","","html-keyboard-response","210","3495290","0.0-210.0","","","","","","","","","","","","null","
            <center>
                <div id=""clip1"" class=""visual"">Clip 1<p>Press ""S""</p></div>
                <div id=""clip2"" class=""visual"">Clip 2<p>Press ""L""</p></div>
            </center>
            <p style=""text-align:center"">Which clip sounds more like someone who was born in Boston?</p>","null","","","","","","","","4","M2_02","F2_02","M2","F2","male","female","But later on, when I traveled quite a bit,","And so my mother also","short","4","1","",""
"","","","","","audio-keyboard-response","211","3499172","0.0-211.0","","","","","","","","","","","","null","../audio/M5_01.WAV","null","M5_01","M5","male","1","1.863625","3.755","half an hour, probably fourty five minutes away.","","","","","","","","","","","","","",""
"","","","","","audio-keyboard-response","212","3500202","0.0-212.0","","","","","","","","","","","","null","../audio/M2_01.WAV","null","M2_01","M2","male","2","1.025729","3.900","being in the squallor.","","","","","","","","","","","","","",""
"","","","","","html-keyboard-response","213","3502218","0.0-213.0","","","","","","","","","","","","null","
            <center>
                <div id=""clip1"" class=""visual"">Clip 1<p>Press ""S""</p></div>
                <div id=""clip2"" class=""visual"">Clip 2<p>Press ""L""</p></div>
            </center>
            <p style=""text-align:center"">Which clip sounds more like someone who was born in Boston?</p>","null","","","","","","","","5","M5_01","M2_01","M5","M2","male","male","half an hour, probably fourty five minutes away.","being in the squallor.","short","4","1","",""
"","","","","","audio-keyboard-response","214","3505231","0.0-214.0","","","","","","","","","","","","null","../audio/M1_02.WAV","null","M1_02","M1","male","1","0.999906","2.000","parallel ways.","","","","","","","","","","","","","",""
"","","","","","audio-keyboard-response","215","3506887","0.0-215.0","","","","","","","","","","","","null","../audio/F2_01.WAV","l","F2_01","F2","female","2","1.654760","3.021","and then upstairs in her apartment,","","","","","","","","","","","","","",""
"","","","","","html-keyboard-response","216","3508902","0.0-216.0","","","","","","","","","","","","573","
            <center>
                <div id=""clip1"" class=""visual"">Clip 1<p>Press ""S""</p></div>
                <div id=""clip2"" class=""visual"">Clip 2<p>Press ""L""</p></div>
            </center>
            <p style=""text-align:center"">Which clip sounds more like someone who was born in Boston?</p>","l","","","","","","","","6","M1_02","F2_01","M1","F2","male","female","parallel ways.","and then upstairs in her apartment,","short","4","1","",""
"","","","","","audio-keyboard-response","217","3513463","0.0-217.0","","","","","","","","","","","","null","../audio/M4_02.WAV","null","M4_02","M4","male","1","2.538281","2.364","the most intimate group of friends,","","","","","","","","","","","","","",""
"","","","","","audio-keyboard-response","218","3515132","0.0-218.0","","","","","","","","","","","","null","../audio/M3_01.WAV","l","M3_01","M3","male","2","1.659469","2.411","to further my education.","","","","","","","","","","","","","",""
"","","","","","html-keyboard-response","219","3517150","0.0-219.0","","","","","","","","","","","","311","
            <center>
                <div id=""clip1"" class=""visual"">Clip 1<p>Press ""S""</p></div>
                <div id=""clip2"" class=""visual"">Clip 2<p>Press ""L""</p></div>
            </center>
            <p style=""text-align:center"">Which clip sounds more like someone who was born in Boston?</p>","l","","","","","","","","7","M4_02","M3_01","M4","M3","male","male","the most intimate group of friends,","to further my education.","short","4","1","",""
"","","","","","audio-keyboard-response","220","3520927","0.0-220.0","","","","","","","","","","","","null","../audio/F5_02.WAV","null","F5_02","F5","female","1","1.750198","2.286","My father also, you know,","","","","","","","","","","","","","",""
"","","","","","audio-keyboard-response","221","3521780","0.0-221.0","","","","","","","","","","","","null","../audio/F5_01.WAV","l","F5_01","F5","female","2","0.835490","3.592","Oh my god.","","","","","","","","","","","","","",""
"","","","","","html-keyboard-response","222","3523792","0.0-222.0","","","","","","","","","","","","160","
            <center>
                <div id=""clip1"" class=""visual"">Clip 1<p>Press ""S""</p></div>
                <div id=""clip2"" class=""visual"">Clip 2<p>Press ""L""</p></div>
            </center>
            <p style=""text-align:center"">Which clip sounds more like someone who was born in Boston?</p>","l","","","","","","","","8","F5_02","F5_01","F5","F5","female","female","My father also, you know,","Oh my god.","short","4","1","",""
"","","","","","audio-keyboard-response","223","3527637","0.0-223.0","","","","","","","","","","","","null","../audio/F4_01.WAV","null","F4_01","F4","female","1","1.835479","2.724","Probably right before I turned six.","","","","","","","","","","","","","",""
"","","","","","audio-keyboard-response","224","3530557","0.0-224.0","","","","","","","","","","","","null","../audio/F4_02.WAV","l","F4_02","F4","female","2","2.916635","2.058","Yeah, a little bit, like elementary school.","","","","","","","","","","","","","",""
"","","","","","html-keyboard-response","225","3532560","0.0-225.0","","","","","","","","","","","","36","
            <center>
                <div id=""clip1"" class=""visual"">Clip 1<p>Press ""S""</p></div>
                <div id=""clip2"" class=""visual"">Clip 2<p>Press ""L""</p></div>
            </center>
            <p style=""text-align:center"">Which clip sounds more like someone who was born in Boston?</p>","l","","","","","","","","9","F4_01","F4_02","F4","F4","female","female","Probably right before I turned six.","Yeah, a little bit, like elementary school.","short","4","1","",""
"","","","","","audio-keyboard-response","226","3536822","0.0-226.0","","","","","","","","","","","","null","../audio/M5_02.WAV","null","M5_02","M5","male","1","2.229229","2.244","Because back in the seventies,","","","","","","","","","","","","","",""
"","","","","","audio-keyboard-response","227","3537712","0.0-227.0","","","","","","","","","","","","null","../audio/M4_01.WAV","l","M4_01","M4","male","2","0.883969","3.393","yeah last fall","","","","","","","","","","","","","",""
"","","","","","html-keyboard-response","228","3539727","0.0-228.0","","","","","","","","","","","","116","
            <center>
                <div id=""clip1"" class=""visual"">Clip 1<p>Press ""S""</p></div>
                <div id=""clip2"" class=""visual"">Clip 2<p>Press ""L""</p></div>
            </center>
            <p style=""text-align:center"">Which clip sounds more like someone who was born in Boston?</p>","l","","","","","","","","10","M5_02","M4_01","M5","M4","male","male","Because back in the seventies,","yeah last fall","short","4","1","",""
"","","","","","audio-keyboard-response","229","3543649","0.0-229.0","","","","","","","","","","","","null","../audio/F2_02.WAV","null","F2_02","F2","female","1","1.902969","2.627","And so my mother also","","","","","","","","","","","","","",""
"","","","","","audio-keyboard-response","230","3545947","0.0-230.0","","","","","","","","","","","","null","../audio/F1_02.WAV","l","F1_02","F1","female","2","2.286385","2.187","clothes or fashion for that matter.","","","","","","","","","","","","","",""
"","","","","","html-keyboard-response","231","3547960","0.0-231.0","","","","","","","","","","","","103","
            <center>
                <div id=""clip1"" class=""visual"">Clip 1<p>Press ""S""</p></div>
                <div id=""clip2"" class=""visual"">Clip 2<p>Press ""L""</p></div>
            </center>
            <p style=""text-align:center"">Which clip sounds more like someone who was born in Boston?</p>","l","","","","","","","","11","F2_02","F1_02","F2","F1","female","female","And so my mother also","clothes or fashion for that matter.","short","4","1","",""
"","","","","","audio-keyboard-response","232","3550812","0.0-232.0","","","","","","","","","","","","null","../audio/F5_01.WAV","null","F5_01","F5","female","1","0.835490","3.592","Oh my god.","","","","","","","","","","","","","",""
"","","","","","audio-keyboard-response","233","3551814","0.0-233.0","","","","","","","","","","","","null","../audio/M1_02.WAV","s","M1_02","M1","male","2","0.999906","2.000","parallel ways.","","","","","","","","","","","","","",""
"","","","","","html-keyboard-response","234","3553822","0.0-234.0","","","","","","","","","","","","718","
            <center>
                <div id=""clip1"" class=""visual"">Clip 1<p>Press ""S""</p></div>
                <div id=""clip2"" class=""visual"">Clip 2<p>Press ""L""</p></div>
            </center>
            <p style=""text-align:center"">Which clip sounds more like someone who was born in Boston?</p>","s","","","","","","","","12","F5_01","M1_02","F5","M1","female","male","Oh my god.","parallel ways.","short","4","1","",""
"","","","","","audio-keyboard-response","235","3557002","0.0-235.0","","","","","","","","","","","","null","../audio/F3_02.WAV","null","F3_02","F3","female","1","1.165760","2.574","as homeless people.","","","","","","","","","","","","","",""
"","","","","","audio-keyboard-response","236","3558671","0.0-236.0","","","","","","","","","","","","null","../audio/M3_01.WAV","l","M3_01","M3","male","2","1.659469","2.411","to further my education.","","","","","","","","","","","","","",""
"","","","","","html-keyboard-response","237","3560682","0.0-237.0","","","","","","","","","","","","133","
            <center>
                <div id=""clip1"" class=""visual"">Clip 1<p>Press ""S""</p></div>
                <div id=""clip2"" class=""visual"">Clip 2<p>Press ""L""</p></div>
            </center>
            <p style=""text-align:center"">Which clip sounds more like someone who was born in Boston?</p>","l","","","","","","","","13","F3_02","M3_01","F3","M3","female","male","as homeless people.","to further my education.","short","4","1","",""
"","","","","","audio-keyboard-response","238","3564942","0.0-238.0","","","","","","","","","","","","null","../audio/M5_02.WAV","null","M5_02","M5","male","1","2.229229","2.244","Because back in the seventies,","","","","","","","","","","","","","",""
"","","","","","audio-keyboard-response","239","3565972","0.0-239.0","","","","","","","","","","","","null","../audio/M2_01.WAV","l","M2_01","M2","male","2","1.025729","3.900","being in the squallor.","","","","","","","","","","","","","",""
"","","","","","html-keyboard-response","240","3567990","0.0-240.0","","","","","","","","","","","","238","
            <center>
                <div id=""clip1"" class=""visual"">Clip 1<p>Press ""S""</p></div>
                <div id=""clip2"" class=""visual"">Clip 2<p>Press ""L""</p></div>
            </center>
            <p style=""text-align:center"">Which clip sounds more like someone who was born in Boston?</p>","l","","","","","","","","14","M5_02","M2_01","M5","M2","male","male","Because back in the seventies,","being in the squallor.","short","4","1","",""
"","","","","","audio-keyboard-response","241","3572545","0.0-241.0","","","","","","","","","","","","null","../audio/M4_02.WAV","null","M4_02","M4","male","1","2.538281","2.364","the most intimate group of friends,","","","","","","","","","","","","","",""
"","","","","","audio-keyboard-response","242","3575277","0.0-242.0","","","","","","","","","","","","null","../audio/F1_01.WAV","l","F1_01","F1","female","2","2.729260","1.832","because of the limited space.","","","","","","","","","","","","","",""
"","","","","","html-keyboard-response","243","3577291","0.0-243.0","","","","","","","","","","","","38","
            <center>
                <div id=""clip1"" class=""visual"">Clip 1<p>Press ""S""</p></div>
                <div id=""clip2"" class=""visual"">Clip 2<p>Press ""L""</p></div>
            </center>
            <p style=""text-align:center"">Which clip sounds more like someone who was born in Boston?</p>","l","","","","","","","","15","M4_02","F1_01","M4","F1","male","female","the most intimate group of friends,","because of the limited space.","short","4","1","",""
"","","","","","audio-keyboard-response","244","3582236","0.0-244.0","","","","","","","","","","","","null","../audio/F4_02.WAV","null","F4_02","F4","female","1","2.916635","2.058","Yeah, a little bit, like elementary school.","","","","","","","","","","","","","",""
"","","","","","audio-keyboard-response","245","3584916","0.0-245.0","","","","","","","","","","","","null","../audio/M2_02.WAV","null","M2_02","M2","male","2","2.665333","3.001","But later on, when I traveled quite a bit,","","","","","","","","","","","","","",""
"","","","","","html-keyboard-response","246","3586919","0.0-246.0","","","","","","","","","","","","null","
            <center>
