"success","timeout","failed_images","failed_audio","failed_video","trial_type","trial_index","time_elapsed","internal_node_id","width","height","webaudio","browser","browser_version","mobile","os","fullscreen","vsync_rate","webcam","microphone","rt","stimulus","response","ID","talker","gender","order","duration","speech_rate","transcript","Order","clip1_id","clip2_id","clip1_speaker","clip2_speaker","clip1_gender","clip2_gender","clip1_transcript","clip2_transcript","block_type","block_number","counterbalance_id","accuracy","question_order"
"true","false","[]","[]","[]","preload","0","2399","0.0-0.0","","","","","","","","","","","","","","","","","","","","","","","","","","","","","","","","","","",""
"true","false","[]","[]","[]","preload","1","8470","0.0-1.0","","","","","","","","","","","","","","","","","","","","","","","","","","","","","","","","","","",""
"","","","","","browser-check","2","112897","0.0-2.0","1278","1312","true","chrome","136.0.0","false","Windows 10","true","59.95","true","true","","","","","","","","","","","","","","","","","","","","","","","",""
"","","","","","html-button-response","3","114558","0.0-3.0","","","","","","","","","","","","1409","
        <div class=""text"" id=""instruction"" >
            <img src=""../images/stanford_logo.png"" alt=""stanford logo"" width=""180"" height=""80"">
            <p><b>Only complete this study if you are a Massachussets resident who is 18 years old or older.</b></p>
            <p>Please share this link with other people you know who live in the area, but <u>do not participate in this study more than once</u>.
            <BR>You will not be compensated more than once.</p> 
            <p>In this experiment, you will be listening to pairs of audio clips.</p>
            <p>Each pair of audio clips will be played once in consecutive order. Your task is to decide which one of the clips sounds like the speaker was born in Boston.</p>
            <p>Please ensure that you use earphones or headphones for the duration of this experiment.</p>
            <p>This experiment should be completed on a <b><u>desktop or laptop</u></b> using the <b><u>Google Chrome browser</u></b>.</p>
            <p>The experiment will take approximately 20 minutes. You will be compensated as advertised on Prolific for your time.</p>
        </div>
      ","0","","","","","","","","","","","","","","","","","","","","",""
"","","","","","html-button-response","4","115766","0.0-4.0","","","","","","","","","","","","955","<p><strong>Thank you for your participation in this study. Please read the protocol below.</strong></p>
        <p>Protocol Director: Robert Hawkins</P
        <p>Protocol Title: Communication and social cognition in natural audiovisual contexts IRB# 77226</p>
        <p>DESCRIPTION: You are invited to participate in a research study about language and communication. 
        The purpose of the research is to understand how you interact and communicate with other people in naturalistic settings as a fluent English speaker. 
        This research will be conducted through the Prolific platform, including participants from the US, UK, and Canada. 
        If you decide to participate in this research, you will play a communication game in a group with one or more partners.</p>
        <p>TIME INVOLVEMENT: The task will last the amount of time advertised on Prolific. You are free to withdraw from the study at any time.</p>
        <p>RISKS AND BENEFITS: You may become frustrated if your partner gets distracted, or experience discomfort if other participants in your group 
        send text that is inappropriate for the task. We ask you to please be respectful of other participants you might be
        interacting with to mitigate these risks. You may also experience discomfort when being asked to discuss or challenge emotionally salient political beliefs. Study data will be
        stored securely, in compliance with Stanford University standards, minimizing the risk of confidentiality breach. This study advances our scientific understanding of how people
        communication and collaborate in naturalistic settings. This study may lead to further
        insights about what can go wrong in teamwork, suggest potential interventions to
        overcome these barriers, and help to develop assistive technologies that collaborate with
        human partners. We cannot and do not guarantee or promise that you will receive any benefits from this study.</p>
        <p>PAYMENTS: You will receive payment in the amount advertised on Prolific. If you do not complete this study, you will receive prorated payment based on the time that you have
        spent. Additionally, you may be eligible for bonus payments as described in the instructions.</p>
        <p> PARTICIPANTS RIGHTS: If you have read this form and have decided to participate in this project, please understand your participation is voluntary and you have the right
        to withdraw your consent or discontinue participation at any time without penalty or loss of benefits to which you are otherwise entitled. The alternative
        is not to participate. You have the right to refuse to answer particular questions. The results of this research study may be presented at scientific or professional meetings or
        published in scientific journals. Your individual privacy will be maintained in all published and written data resulting from the study. In accordance with scientific norms, the data
        from this study may be used or shared with other researchers for future research (after removing personally identifying information) without additional consent from you.</p>
        <p>CONTACT INFORMATION: Questions: If you have any questions, concerns or complaints about this research, its procedures, risks and benefits, contact the Protocol Director, Robert Hawkins (rdhawkins@stanford.edu, 217-549-6923).</p>
        <p>Independent Contact: If you are not satisfied with how this study is being conducted, or if you have any concerns, complaints, or general questions about the research or your rights as a participant, please contact the Stanford Institutional Review Board (IRB) to
        speak to someone independent of the research team at 650-723-2480 or toll free at 1-866-680-2906, or email at irbnonmed@stanford.edu. You can also write to the Stanford IRB, Stanford University, 1705 El Camino Real, Palo Alto, CA 94306. Please save or print a
        copy of this page for your records.</p>
        <p>If you agree to participate in this research, press the <strong>CONTINUE</strong> button to begin.</p> 
      ","0","","","","","","","","","","","","","","","","","","","","",""
"","","","","","cloze","5","120866","0.0-5.0","","","","","","","","","","","","","","[""friends""]","","","","","","","","","","","","","","","","","","","","",""
"","","","","","html-button-response","6","122023","0.0-6.0","","","","","","","","","","","","892","
    <center>
      <div class=""instruction-box"">
        <p>You will now begin the practice trials.</p>
        <p>In each trial, two audio clips will play one after another. You will hear a variety of sentences and phrases spoken by different talkers.</p>
        <p>Each audio clip will only be played once and you will not be able to replay them.</p>
        <p><strong>Your task is to decide which clip sounds more like the speaker was born in Boston.</strong></p>
        <p><strong>These clips come from a range of different people so they might not all sound like your typical Bostonian, but just make your best guess as quickly as possible.</strong></p>        
  </center>
        ","0","","","","","","","","","","","","","","","","","","","","",""
"","","","","","html-button-response","7","123397","0.0-7.0","","","","","","","","","","","","1121","
    <center>   
      <div class=""instruction-box"">   
        <p>Please place your left index finger on the ""S"" key and your right index finger on the ""L"" key.</p>
        <p><img src=""../procedures/keyboard.png"" width=""500"" style=""margin-top:-10px""></p>
        <p>If the <strong>first clip</strong> sounds more like someone who was born in Boston, please <strong>press S</strong>.</p>
        <p>If the <strong>second clip</strong> sounds more like someone who was born in Boston, please <strong>press L</strong>.</p>
        <p><b>Respond as quickly as possible when both clips have finished playing.</b></p>
        <p>This is a timed task. If you do not respond in time, the next question will appear automatically.</p>
        <p><b>Please answer as quickly and accurately as possible.</b></p>
    </center>
        ","0","","","","","","","","","","","","","","","","","","","","",""
"","","","","","audio-keyboard-response","8","127662","0.0-8.0","","","","","","","","","","","","null","../practice/trial1_clip1.WAV","null","practice_trial1_clip1","practice_speaker","unknown","1","4","unknown","practice_transcript","","","","","","","","","","","","","",""
"","","","","","audio-keyboard-response","9","131677","0.0-9.0","","","","","","","","","","","","null","../practice/trial1_clip2.WAV","l","practice_trial1_clip2","practice_speaker","unknown","2","4","unknown","practice_transcript","","","","","","","","","","","","","",""
"","","","","","html-keyboard-response","10","133691","0.0-10.0","","","","","","","","","","","","247","
        <center>
            <div id=""clip1"" class=""visual"">Clip 1<p>Press ""S""</p></div>
            <div id=""clip2"" class=""visual"">Clip 2<p>Press ""L""</p></div>
        </center>
        <p style=""text-align:center"">Which clip sounds more like someone who was born in Boston?</p>","l","","","","","","","","1","practice_trial1_clip1","practice_trial1_clip2","","","","","","","","","","",""
"","","","","","audio-keyboard-response","11","139715","0.0-11.0","","","","","","","","","","","","null","../practice/trial2_clip1.WAV","null","practice_trial2_clip1","practice_speaker","unknown","1","4","unknown","practice_transcript","","","","","","","","","","","","","",""
"","","","","","audio-keyboard-response","12","143732","0.0-12.0","","","","","","","","","","","","null","../practice/trial2_clip2.WAV","null","practice_trial2_clip2","practice_speaker","unknown","2","4","unknown","practice_transcript","","","","","","","","","","","","","",""
"","","","","","html-keyboard-response","13","145747","0.0-13.0","","","","","","","","","","","","null","
        <center>
            <div id=""clip1"" class=""visual"">Clip 1<p>Press ""S""</p></div>
            <div id=""clip2"" class=""visual"">Clip 2<p>Press ""L""</p></div>
        </center>
        <p style=""text-align:center"">Which clip sounds more like someone who was born in Boston?</p>","null","","","","","","","","2","practice_trial2_clip1","practice_trial2_clip2","","","","","","","","","","",""
"","","","","","audio-keyboard-response","14","151755","0.0-14.0","","","","","","","","","","","","null","../practice/trial3_clip1.WAV","null","practice_trial3_clip1","practice_speaker","unknown","1","4","unknown","practice_transcript","","","","","","","","","","","","","",""
"","","","","","audio-keyboard-response","15","155772","0.0-15.0","","","","","","","","","","","","null","../practice/trial3_clip2.WAV","l","practice_trial3_clip2","practice_speaker","unknown","2","4","unknown","practice_transcript","","","","","","","","","","","","","",""
"","","","","","html-keyboard-response","16","157778","0.0-16.0","","","","","","","","","","","","411","
        <center>
            <div id=""clip1"" class=""visual"">Clip 1<p>Press ""S""</p></div>
            <div id=""clip2"" class=""visual"">Clip 2<p>Press ""L""</p></div>
        </center>
        <p style=""text-align:center"">Which clip sounds more like someone who was born in Boston?</p>","l","","","","","","","","3","practice_trial3_clip1","practice_trial3_clip2","","","","","","","","","","",""
"","","","","","html-button-response","17","161366","0.0-17.0","","","","","","","","","","","","1585","
    <center>
      <div class=""instruction-box"">
        <p>You will now begin the experiment.</p>
        <p>In each trial, two audio clips will play one after another. You will hear a variety of sentences and phrases spoken by different talkers.</p>
        <p>Each audio clip will only be played once and you will not be able to replay them.</p>
        <p><strong>Your task is to decide which clip sounds more like someone who was born in Boston.</strong></p>
        <p><strong>These clips come from a range of different people so they might not all sound like your typical Bostonian, but please do your best to respond as quickly as possible.</strong></p>
    </center>
        ","0","","","","","","","","","","","","","","","","","","","","",""
"","","","","","html-button-response","18","162879","0.0-18.0","","","","","","","","","","","","1250","
    <center>
      <div class=""instruction-box"">
        <p>Please place your left index finger on the ""S"" key and your right index finger on the ""L"" key.</p>
        <p><img src=""../procedures/keyboard.png"" width=""500"" style=""margin-top:-10px""></p>
        <p>If the <strong>first clip</strong> sounds more like someone who was born in Boston, please <strong>press S</strong>.</p>
        <p>If the <strong>second clip</strong> sounds more like someone who was born in Boston, please <strong>press L</strong>.</p>
        <p><b>Respond as quickly as possible when both clips have finished playing.</b></p>
        <p>This is a timed task. If you do not respond in time, the next question will appear automatically.</p>
        <p><b>Please answer as quickly and accurately as possible.</b></p>
    </center>
        ","0","","","","","","","","","","","","","","","","","","","","",""
"","","","","","audio-keyboard-response","19","164639","0.0-19.0","","","","","","","","","","","","null","../audio/M1_04.WAV","null","M1_04","M1","male","1","0.999906","2.000188035","Parallel ways.","","","","","","","","","","","","","",""
"","","","","","audio-keyboard-response","20","166019","0.0-20.0","","","","","","","","","","","","null","../audio/F2_03.WAV","l","F2_03","F2","female","2","1.372927","5.098","And they charge lots and lots of money.","","","","","","","","","","","","","",""
"","","","","","html-keyboard-response","21","168022","0.0-21.0","","","","","","","","","","","","260","
            <center>
                <div id=""clip1"" class=""visual"">Clip 1<p>Press ""S""</p></div>
                <div id=""clip2"" class=""visual"">Clip 2<p>Press ""L""</p></div>
            </center>
            <p style=""text-align:center"">Which clip sounds more like someone who was born in Boston?</p>","l","","","","","","","","1","M1_04","F2_03","M1","F2","male","female","Parallel ways.","And they charge lots and lots of money.","long","1","1","",""
"","","","","","audio-keyboard-response","22","175252","0.0-22.0","","","","","","","","","","","","null","../audio/F2_04.WAV","null","F2_04","F2","female","1","4.716052","2.332","And then upstairs in her apartment, she would make rice wine.","","","","","","","","","","","","","",""
"","","","","","audio-keyboard-response","23","177939","0.0-23.0","","","","","","","","","","","","null","../audio/M5_04.WAV","s","M5_04","M5","male","2","2.679688","2.612","We have a very enjoyable life, nothing.","","","","","","","","","","","","","",""
"","","","","","html-keyboard-response","24","179953","0.0-24.0","","","","","","","","","","","","1579","
            <center>
                <div id=""clip1"" class=""visual"">Clip 1<p>Press ""S""</p></div>
                <div id=""clip2"" class=""visual"">Clip 2<p>Press ""L""</p></div>
            </center>
            <p style=""text-align:center"">Which clip sounds more like someone who was born in Boston?</p>","s","","","","","","","","2","F2_04","M5_04","F2","M5","female","male","And then upstairs in her apartment, she would make rice wine.","We have a very enjoyable life, nothing.","long","1","1","",""
"","","","","","audio-keyboard-response","25","184219","0.0-25.0","","","","","","","","","","","","null","../audio/F3_03.WAV","null","F3_03","F3","female","1","1.738271","2.877","At least one family had moved.","","","","","","","","","","","","","",""
"","","","","","audio-keyboard-response","26","185057","0.0-26.0","","","","","","","","","","","","null","../audio/F5_04.WAV","null","F5_04","F5","female","2","0.83549","3.592","Oh my god.","","","","","","","","","","","","","",""
"","","","","","html-keyboard-response","27","187068","0.0-27.0","","","","","","","","","","","","null","
            <center>
                <div id=""clip1"" class=""visual"">Clip 1<p>Press ""S""</p></div>
                <div id=""clip2"" class=""visual"">Clip 2<p>Press ""L""</p></div>
            </center>
            <p style=""text-align:center"">Which clip sounds more like someone who was born in Boston?</p>","null","","","","","","","","3","F3_03","F5_04","F3","F5","female","female","At least one family had moved.","Oh my god.","long","1","1","",""
"","","","","","audio-keyboard-response","28","190521","0.0-28.0","","","","","","","","","","","","null","../audio/M2_03.WAV","null","M2_03","M2","male","1","0.928833","5.382","I just wanted to get up.","","","","","","","","","","","","","",""
"","","","","","audio-keyboard-response","29","192009","0.0-29.0","","","","","","","","","","","","null","../audio/M3_03.WAV","l","M3_03","M3","male","2","1.483458","3.371","Not too far away from here.","","","","","","","","","","","","","",""
"","","","","","html-keyboard-response","30","194021","0.0-30.0","","","","","","","","","","","","1763","
            <center>
                <div id=""clip1"" class=""visual"">Clip 1<p>Press ""S""</p></div>
                <div id=""clip2"" class=""visual"">Clip 2<p>Press ""L""</p></div>
            </center>
            <p style=""text-align:center"">Which clip sounds more like someone who was born in Boston?</p>","l","","","","","","","","4","M2_03","M3_03","M2","M3","male","male","I just wanted to get up.","Not too far away from here.","long","1","1","",""
"","","","","","audio-keyboard-response","31","199695","0.0-31.0","","","","","","","","","","","","null","../audio/F5_03.WAV","null","F5_03","F5","female","1","3.162094","2.530","It was a totally new experience to me.","","","","","","","","","","","","","",""
"","","","","","audio-keyboard-response","32","200919","0.0-32.0","","","","","","","","","","","","null","../audio/M1_03.WAV","l","M1_03","M1","male","2","1.220375","5.087881591","Being in medical field.","","","","","","","","","","","","","",""
"","","","","","html-keyboard-response","33","202932","0.0-33.0","","","","","","","","","","","","270","
            <center>
                <div id=""clip1"" class=""visual"">Clip 1<p>Press ""S""</p></div>
                <div id=""clip2"" class=""visual"">Clip 2<p>Press ""L""</p></div>
            </center>
            <p style=""text-align:center"">Which clip sounds more like someone who was born in Boston?</p>","l","","","","","","","","5","F5_03","M1_03","F5","M1","female","male","It was a totally new experience to me.","Being in medical field.","long","1","1","",""
"","","","","","audio-keyboard-response","34","207990","0.0-34.0","","","","","","","","","","","","null","../audio/M4_04.WAV","null","M4_04","M4","male","1","2.538281","2.364","The most intimate group of friends.","","","","","","","","","","","","","",""
"","","","","","audio-keyboard-response","35","210559","0.0-35.0","","","","","","","","","","","","null","../audio/M3_04.WAV","l","M3_04","M3","male","2","2.564635","3.508","They have to learn about what they're talking about.","","","","","","","","","","","","","",""
"","","","","","html-keyboard-response","36","212562","0.0-36.0","","","","","","","","","","","","215","
            <center>
                <div id=""clip1"" class=""visual"">Clip 1<p>Press ""S""</p></div>
                <div id=""clip2"" class=""visual"">Clip 2<p>Press ""L""</p></div>
            </center>
            <p style=""text-align:center"">Which clip sounds more like someone who was born in Boston?</p>","l","","","","","","","","6","M4_04","M3_04","M4","M3","male","male","The most intimate group of friends.","They have to learn about what they're talking about.","long","1","1","",""
"","","","","","audio-keyboard-response","37","216589","0.0-37.0","","","","","","","","","","","","null","../audio/F4_04.WAV","null","F4_04","F4","female","1","1.514","3.303","It was hard for my mom.","","","","","","","","","","","","","",""
"","","","","","audio-keyboard-response","38","218627","0.0-38.0","","","","","","","","","","","","null","../audio/F1_03.WAV","null","F1_03","F1","female","2","2.034542","3.440","No, actually I was the only one.","","","","","","","","","","","","","",""
"","","","","","html-keyboard-response","39","220637","0.0-39.0","","","","","","","","","","","","null","
            <center>
                <div id=""clip1"" class=""visual"">Clip 1<p>Press ""S""</p></div>
                <div id=""clip2"" class=""visual"">Clip 2<p>Press ""L""</p></div>
            </center>
            <p style=""text-align:center"">Which clip sounds more like someone who was born in Boston?</p>","null","","","","","","","","7","F4_04","F1_03","F4","F1","female","female","It was hard for my mom.","No, actually I was the only one.","long","1","1","",""
"","","","","","audio-keyboard-response","40","226328","0.0-40.0","","","","","","","","","","","","null","../audio/F1_04.WAV","null","F1_04","F1","female","1","3.175875","3.149","But majority of the time people offered to pick me up.","","","","","","","","","","","","","",""
"","","","","","audio-keyboard-response","41","227449","0.0-41.0","","","","","","","","","","","","null","../audio/M5_03.WAV","s","M5_03","M5","male","2","1.118844","3.576","I said, what is this?","","","","","","","","","","","","","",""
"","","","","","html-keyboard-response","42","229457","0.0-42.0","","","","","","","","","","","","286","
            <center>
                <div id=""clip1"" class=""visual"">Clip 1<p>Press ""S""</p></div>
                <div id=""clip2"" class=""visual"">Clip 2<p>Press ""L""</p></div>
            </center>
            <p style=""text-align:center"">Which clip sounds more like someone who was born in Boston?</p>","s","","","","","","","","8","F1_04","M5_03","F1","M5","female","male","But majority of the time people offered to pick me up.","I said, what is this?","long","1","1","",""
"","","","","","audio-keyboard-response","43","234111","0.0-43.0","","","","","","","","","","","","null","../audio/M4_03.WAV","null","M4_03","M4","male","1","2.137188","1.872","They didn't really respond.","","","","","","","","","","","","","",""
"","","","","","audio-keyboard-response","44","236299","0.0-44.0","","","","","","","","","","","","null","../audio/M2_04.WAV","s","M2_04","M2","male","2","2.180729","2.751","People just focus on making money.","","","","","","","","","","","","","",""
"","","","","","html-keyboard-response","45","238301","0.0-45.0","","","","","","","","","","","","96","
            <center>
                <div id=""clip1"" class=""visual"">Clip 1<p>Press ""S""</p></div>
                <div id=""clip2"" class=""visual"">Clip 2<p>Press ""L""</p></div>
            </center>
            <p style=""text-align:center"">Which clip sounds more like someone who was born in Boston?</p>","s","","","","","","","","9","M4_03","M2_04","M4","M2","male","male","They didn't really respond.","People just focus on making money.","long","1","1","",""
"","","","","","audio-keyboard-response","46","244487","0.0-46.0","","","","","","","","","","","","null","../audio/F4_03.WAV","null","F4_03","F4","female","1","3.670938","3.269","Yeah, it was an apartment building. It was like a one-bedroom","","","","","","","","","","","","","",""
"","","","","","audio-keyboard-response","47","246149","0.0-47.0","","","","","","","","","","","","null","../audio/F3_04.WAV","s","F3_04","F3","female","2","1.651802","4.843","There were a lot of children in the area.","","","","","","","","","","","","","",""
"","","","","","html-keyboard-response","48","248152","0.0-48.0","","","","","","","","","","","","235","
            <center>
                <div id=""clip1"" class=""visual"">Clip 1<p>Press ""S""</p></div>
                <div id=""clip2"" class=""visual"">Clip 2<p>Press ""L""</p></div>
            </center>
            <p style=""text-align:center"">Which clip sounds more like someone who was born in Boston?</p>","s","","","","","","","","10","F4_03","F3_04","F4","F3","female","female","Yeah, it was an apartment building. It was like a one-bedroom","There were a lot of children in the area.","long","1","1","",""
"","","","","","audio-keyboard-response","49","251673","0.0-49.0","","","","","","","","","","","","null","../audio/M1_04.WAV","null","M1_04","M1","male","1","0.999906","2.000188035","Parallel ways.","","","","","","","","","","","","","",""
"","","","","","audio-keyboard-response","50","253329","0.0-50.0","","","","","","","","","","","","null","../audio/F3_04.WAV","s","F3_04","F3","female","2","1.651802","4.843","There were a lot of children in the area.","","","","","","","","","","","","","",""
"","","","","","html-keyboard-response","51","255339","0.0-51.0","","","","","","","","","","","","424","
            <center>
                <div id=""clip1"" class=""visual"">Clip 1<p>Press ""S""</p></div>
                <div id=""clip2"" class=""visual"">Clip 2<p>Press ""L""</p></div>
            </center>
            <p style=""text-align:center"">Which clip sounds more like someone who was born in Boston?</p>","s","","","","","","","","11","M1_04","F3_04","M1","F3","male","female","Parallel ways.","There were a lot of children in the area.","long","1","1","",""
"","","","","","audio-keyboard-response","52","260042","0.0-52.0","","","","","","","","","","","","null","../audio/M2_04.WAV","null","M2_04","M2","male","1","2.180729","2.751","People just focus on making money.","","","","","","","","","","","","","",""
"","","","","","audio-keyboard-response","53","261169","0.0-53.0","","","","","","","","","","","","null","../audio/M5_03.WAV","l","M5_03","M5","male","2","1.118844","3.576","I said, what is this?","","","","","","","","","","","","","",""
"","","","","","html-keyboard-response","54","263171","0.0-54.0","","","","","","","","","","","","259","
            <center>
                <div id=""clip1"" class=""visual"">Clip 1<p>Press ""S""</p></div>
                <div id=""clip2"" class=""visual"">Clip 2<p>Press ""L""</p></div>
            </center>
            <p style=""text-align:center"">Which clip sounds more like someone who was born in Boston?</p>","l","","","","","","","","12","M2_04","M5_03","M2","M5","male","male","People just focus on making money.","I said, what is this?","long","1","1","",""
"","","","","","audio-keyboard-response","55","269364","0.0-55.0","","","","","","","","","","","","null","../audio/F4_03.WAV","null","F4_03","F4","female","1","3.670938","3.269","Yeah, it was an apartment building. It was like a one-bedroom","","","","","","","","","","","","","",""
"","","","","","audio-keyboard-response","56","271103","0.0-56.0","","","","","","","","","","","","null","../audio/F3_03.WAV","l","F3_03","F3","female","2","1.738271","2.877","At least one family had moved.","","","","","","","","","","","","","",""
"","","","","","html-keyboard-response","57","273107","0.0-57.0","","","","","","","","","","","","1594","
            <center>
                <div id=""clip1"" class=""visual"">Clip 1<p>Press ""S""</p></div>
                <div id=""clip2"" class=""visual"">Clip 2<p>Press ""L""</p></div>
            </center>
            <p style=""text-align:center"">Which clip sounds more like someone who was born in Boston?</p>","l","","","","","","","","13","F4_03","F3_03","F4","F3","female","female","Yeah, it was an apartment building. It was like a one-bedroom","At least one family had moved.","long","1","1","",""
"","","","","","audio-keyboard-response","58","276460","0.0-58.0","","","","","","","","","","","","null","../audio/F5_04.WAV","null","F5_04","F5","female","1","0.83549","3.592","Oh my god.","","","","","","","","","","","","","",""
"","","","","","audio-keyboard-response","59","279144","0.0-59.0","","","","","","","","","","","","null","../audio/M5_04.WAV","l","M5_04","M5","male","2","2.679688","2.612","We have a very enjoyable life, nothing.","","","","","","","","","","","","","",""
"","","","","","html-keyboard-response","60","281157","0.0-60.0","","","","","","","","","","","","238","
            <center>
                <div id=""clip1"" class=""visual"">Clip 1<p>Press ""S""</p></div>
                <div id=""clip2"" class=""visual"">Clip 2<p>Press ""L""</p></div>
            </center>
            <p style=""text-align:center"">Which clip sounds more like someone who was born in Boston?</p>","l","","","","","","","","14","F5_04","M5_04","F5","M5","female","male","Oh my god.","We have a very enjoyable life, nothing.","long","1","1","",""
"","","","","","audio-keyboard-response","61","286246","0.0-61.0","","","","","","","","","","","","null","../audio/M3_04.WAV","null","M3_04","M3","male","1","2.564635","3.508","They have to learn about what they're talking about.","","","","","","","","","","","","","",""
"","","","","","audio-keyboard-response","62","287469","0.0-62.0","","","","","","","","","","","","null","../audio/M1_03.WAV","l","M1_03","M1","male","2","1.220375","5.087881591","Being in medical field.","","","","","","","","","","","","","",""
"","","","","","html-keyboard-response","63","289479","0.0-63.0","","","","","","","","","","","","202","
            <center>
                <div id=""clip1"" class=""visual"">Clip 1<p>Press ""S""</p></div>
                <div id=""clip2"" class=""visual"">Clip 2<p>Press ""L""</p></div>
            </center>
            <p style=""text-align:center"">Which clip sounds more like someone who was born in Boston?</p>","l","","","","","","","","15","M3_04","M1_03","M3","M1","male","male","They have to learn about what they're talking about.","Being in medical field.","long","1","1","",""
"","","","","","audio-keyboard-response","64","295157","0.0-64.0","","","","","","","","","","","","null","../audio/F5_03.WAV","null","F5_03","F5","female","1","3.162094","2.530","It was a totally new experience to me.","","","","","","","","","","","","","",""
"","","","","","audio-keyboard-response","65","296676","0.0-65.0","","","","","","","","","","","","null","../audio/F4_04.WAV","l","F4_04","F4","female","2","1.514","3.303","It was hard for my mom.","","","","","","","","","","","","","",""
"","","","","","html-keyboard-response","66","298690","0.0-66.0","","","","","","","","","","","","139","
            <center>
                <div id=""clip1"" class=""visual"">Clip 1<p>Press ""S""</p></div>
                <div id=""clip2"" class=""visual"">Clip 2<p>Press ""L""</p></div>
            </center>
            <p style=""text-align:center"">Which clip sounds more like someone who was born in Boston?</p>","l","","","","","","","","16","F5_03","F4_04","F5","F4","female","female","It was a totally new experience to me.","It was hard for my mom.","long","1","1","",""
"","","","","","audio-keyboard-response","67","303333","0.0-67.0","","","","","","","","","","","","null","../audio/M4_03.WAV","null","M4_03","M4","male","1","2.137188","1.872","They didn't really respond.","","","","","","","","","","","","","",""
"","","","","","audio-keyboard-response","68","308065","0.0-68.0","","","","","","","","","","","","null","../audio/F2_04.WAV","l","F2_04","F2","female","2","4.716052","2.332","And then upstairs in her apartment, she would make rice wine.","","","","","","","","","","","","","",""
"","","","","","html-keyboard-response","69","310067","0.0-69.0","","","","","","","","","","","","81","
            <center>
                <div id=""clip1"" class=""visual"">Clip 1<p>Press ""S""</p></div>
                <div id=""clip2"" class=""visual"">Clip 2<p>Press ""L""</p></div>
            </center>
            <p style=""text-align:center"">Which clip sounds more like someone who was born in Boston?</p>","l","","","","","","","","17","M4_03","F2_04","M4","F2","male","female","They didn't really respond.","And then upstairs in her apartment, she would make rice wine.","long","1","1","",""
"","","","","","audio-keyboard-response","70","315122","0.0-70.0","","","","","","","","","","","","null","../audio/M4_04.WAV","null","M4_04","M4","male","1","2.538281","2.364","The most intimate group of friends.","","","","","","","","","","","","","",""
"","","","","","audio-keyboard-response","71","316052","0.0-71.0","","","","","","","","","","","","null","../audio/M2_03.WAV","l","M2_03","M2","male","2","0.928833","5.382","I just wanted to get up.","","","","","","","","","","","","","",""
"","","","","","html-keyboard-response","72","318056","0.0-72.0","","","","","","","","","","","","331","
            <center>
                <div id=""clip1"" class=""visual"">Clip 1<p>Press ""S""</p></div>
                <div id=""clip2"" class=""visual"">Clip 2<p>Press ""L""</p></div>
            </center>
            <p style=""text-align:center"">Which clip sounds more like someone who was born in Boston?</p>","l","","","","","","","","18","M4_04","M2_03","M4","M2","male","male","The most intimate group of friends.","I just wanted to get up.","long","1","1","",""
"","","","","","audio-keyboard-response","73","323749","0.0-73.0","","","","","","","","","","","","null","../audio/F1_04.WAV","null","F1_04","F1","female","1","3.175875","3.149","But majority of the time people offered to pick me up.","","","","","","","","","","","","","",""
"","","","","","audio-keyboard-response","74","325129","0.0-74.0","","","","","","","","","","","","null","../audio/F2_03.WAV","l","F2_03","F2","female","2","1.372927","5.098","And they charge lots and lots of money.","","","","","","","","","","","","","",""
"","","","","","html-keyboard-response","75","327136","0.0-75.0","","","","","","","","","","","","153","
            <center>
                <div id=""clip1"" class=""visual"">Clip 1<p>Press ""S""</p></div>
                <div id=""clip2"" class=""visual"">Clip 2<p>Press ""L""</p></div>
            </center>
            <p style=""text-align:center"">Which clip sounds more like someone who was born in Boston?</p>","l","","","","","","","","19","F1_04","F2_03","F1","F2","female","female","But majority of the time people offered to pick me up.","And they charge lots and lots of money.","long","1","1","",""
"","","","","","audio-keyboard-response","76","331128","0.0-76.0","","","","","","","","","","","","null","../audio/M3_03.WAV","null","M3_03","M3","male","1","1.483458","3.371","Not too far away from here.","","","","","","","","","","","","","",""
"","","","","","audio-keyboard-response","77","333165","0.0-77.0","","","","","","","","","","","","null","../audio/F1_03.WAV","l","F1_03","F1","female","2","2.034542","3.440","No, actually I was the only one.","","","","","","","","","","","","","",""
"","","","","","html-keyboard-response","78","335173","0.0-78.0","","","","","","","","","","","","80","
            <center>
                <div id=""clip1"" class=""visual"">Clip 1<p>Press ""S""</p></div>
                <div id=""clip2"" class=""visual"">Clip 2<p>Press ""L""</p></div>
            </center>
            <p style=""text-align:center"">Which clip sounds more like someone who was born in Boston?</p>","l","","","","","","","","20","M3_03","F1_03","M3","F1","male","female","Not too far away from here.","No, actually I was the only one.","long","1","1","",""
"","","","","","audio-keyboard-response","79","340369","0.0-79.0","","","","","","","","","","","","null","../audio/M5_04.WAV","null","M5_04","M5","male","1","2.679688","2.612","We have a very enjoyable life, nothing.","","","","","","","","","","","","","",""
"","","","","","audio-keyboard-response","80","342024","0.0-80.0","","","","","","","","","","","","null","../audio/F3_04.WAV","l","F3_04","F3","female","2","1.651802","4.843","There were a lot of children in the area.","","","","","","","","","","","","","",""
"","","","","","html-keyboard-response","81","344030","0.0-81.0","","","","","","","","","","","","157","
            <center>
                <div id=""clip1"" class=""visual"">Clip 1<p>Press ""S""</p></div>
                <div id=""clip2"" class=""visual"">Clip 2<p>Press ""L""</p></div>
            </center>
            <p style=""text-align:center"">Which clip sounds more like someone who was born in Boston?</p>","l","","","","","","","","1","M5_04","F3_04","M5","F3","male","female","We have a very enjoyable life, nothing.","There were a lot of children in the area.","long","2","1","",""
"","","","","","audio-keyboard-response","82","349712","0.0-82.0","","","","","","","","","","","","null","../audio/F5_03.WAV","null","F5_03","F5","female","1","3.162094","2.530","It was a totally new experience to me.","","","","","","","","","","","","","",""
"","","","","","audio-keyboard-response","83","350719","0.0-83.0","","","","","","","","","","","","null","../audio/M1_04.WAV","l","M1_04","M1","male","2","0.999906","2.000188035","Parallel ways.","","","","","","","","","","","","","",""
"","","","","","html-keyboard-response","84","352728","0.0-84.0","","","","","","","","","","","","247","
            <center>
                <div id=""clip1"" class=""visual"">Clip 1<p>Press ""S""</p></div>
                <div id=""clip2"" class=""visual"">Clip 2<p>Press ""L""</p></div>
            </center>
            <p style=""text-align:center"">Which clip sounds more like someone who was born in Boston?</p>","l","","","","","","","","2","F5_03","M1_04","F5","M1","female","male","It was a totally new experience to me.","Parallel ways.","long","2","1","",""
"","","","","","audio-keyboard-response","85","356175","0.0-85.0","","","","","","","","","","","","null","../audio/M2_03.WAV","null","M2_03","M2","male","1","0.928833","5.382","I just wanted to get up.","","","","","","","","","","","","","",""
"","","","","","audio-keyboard-response","86","360906","0.0-86.0","","","","","","","","","","","","null","../audio/F2_04.WAV","l","F2_04","F2","female","2","4.716052","2.332","And then upstairs in her apartment, she would make rice wine.","","","","","","","","","","","","","",""
"","","","","","html-keyboard-response","87","362912","0.0-87.0","","","","","","","","","","","","336","
            <center>
                <div id=""clip1"" class=""visual"">Clip 1<p>Press ""S""</p></div>
                <div id=""clip2"" class=""visual"">Clip 2<p>Press ""L""</p></div>
            </center>
            <p style=""text-align:center"">Which clip sounds more like someone who was born in Boston?</p>","l","","","","","","","","3","M2_03","F2_04","M2","F2","male","female","I just wanted to get up.","And then upstairs in her apartment, she would make rice wine.","long","2","1","",""
"","","","","","audio-keyboard-response","88","366539","0.0-88.0","","","","","","","","","","","","null","../audio/M5_03.WAV","null","M5_03","M5","male","1","1.118844","3.576","I said, what is this?","","","","","","","","","","","","","",""
"","","","","","audio-keyboard-response","89","368029","0.0-89.0","","","","","","","","","","","","null","../audio/M3_03.WAV","l","M3_03","M3","male","2","1.483458","3.371","Not too far away from here.","","","","","","","","","","","","","",""
"","","","","","html-keyboard-response","90","370046","0.0-90.0","","","","","","","","","","","","559","
            <center>
                <div id=""clip1"" class=""visual"">Clip 1<p>Press ""S""</p></div>
                <div id=""clip2"" class=""visual"">Clip 2<p>Press ""L""</p></div>
            </center>
            <p style=""text-align:center"">Which clip sounds more like someone who was born in Boston?</p>","l","","","","","","","","4","M5_03","M3_03","M5","M3","male","male","I said, what is this?","Not too far away from here.","long","2","1","",""
"","","","","","audio-keyboard-response","91","374296","0.0-91.0","","","","","","","","","","","","null","../audio/F3_03.WAV","null","F3_03","F3","female","1","1.738271","2.877","At least one family had moved.","","","","","","","","","","","","","",""
"","","","","","audio-keyboard-response","92","377969","0.0-92.0","","","","","","","","","","","","null","../audio/F4_03.WAV","l","F4_03","F4","female","2","3.670938","3.269","Yeah, it was an apartment building. It was like a one-bedroom","","","","","","","","","","","","","",""
"","","","","","html-keyboard-response","93","379982","0.0-93.0","","","","","","","","","","","","263","
            <center>
                <div id=""clip1"" class=""visual"">Clip 1<p>Press ""S""</p></div>
                <div id=""clip2"" class=""visual"">Clip 2<p>Press ""L""</p></div>
            </center>
            <p style=""text-align:center"">Which clip sounds more like someone who was born in Boston?</p>","l","","","","","","","","5","F3_03","F4_03","F3","F4","female","female","At least one family had moved.","Yeah, it was an apartment building. It was like a one-bedroom","long","2","1","",""
"","","","","","audio-keyboard-response","94","384680","0.0-94.0","","","","","","","","","","","","null","../audio/M2_04.WAV","null","M2_04","M2","male","1","2.180729","2.751","People just focus on making money.","","","","","","","","","","","","","",""
"","","","","","audio-keyboard-response","95","386205","0.0-95.0","","","","","","","","","","","","null","../audio/F4_04.WAV","l","F4_04","F4","female","2","1.514","3.303","It was hard for my mom.","","","","","","","","","","","","","",""
"","","","","","html-keyboard-response","96","388213","0.0-96.0","","","","","","","","","","","","164","
            <center>
                <div id=""clip1"" class=""visual"">Clip 1<p>Press ""S""</p></div>
                <div id=""clip2"" class=""visual"">Clip 2<p>Press ""L""</p></div>
            </center>
            <p style=""text-align:center"">Which clip sounds more like someone who was born in Boston?</p>","l","","","","","","","","6","M2_04","F4_04","M2","F4","male","female","People just focus on making money.","It was hard for my mom.","long","2","1","",""
"","","","","","audio-keyboard-response","97","393260","0.0-97.0","","","","","","","","","","","","null","../audio/M4_04.WAV","null","M4_04","M4","male","1","2.538281","2.364","The most intimate group of friends.","","","","","","","","","","","","","",""
"","","","","","audio-keyboard-response","98","394639","0.0-98.0","","","","","","","","","","","","null","../audio/F2_03.WAV","l","F2_03","F2","female","2","1.372927","5.098","And they charge lots and lots of money.","","","","","","","","","","","","","",""
"","","","","","html-keyboard-response","99","396646","0.0-99.0","","","","","","","","","","","","139","
            <center>
                <div id=""clip1"" class=""visual"">Clip 1<p>Press ""S""</p></div>
                <div id=""clip2"" class=""visual"">Clip 2<p>Press ""L""</p></div>
            </center>
            <p style=""text-align:center"">Which clip sounds more like someone who was born in Boston?</p>","l","","","","","","","","7","M4_04","F2_03","M4","F2","male","female","The most intimate group of friends.","And they charge lots and lots of money.","long","2","1","",""
"","","","","","audio-keyboard-response","100","399987","0.0-100.0","","","","","","","","","","","","null","../audio/F5_04.WAV","null","F5_04","F5","female","1","0.83549","3.592","Oh my god.","","","","","","","","","","","","","",""
"","","","","","audio-keyboard-response","101","402566","0.0-101.0","","","","","","","","","","","","null","../audio/M3_04.WAV","l","M3_04","M3","male","2","2.564635","3.508","They have to learn about what they're talking about.","","","","","","","","","","","","","",""
"","","","","","html-keyboard-response","102","404571","0.0-102.0","","","","","","","","","","","","195","
            <center>
                <div id=""clip1"" class=""visual"">Clip 1<p>Press ""S""</p></div>
                <div id=""clip2"" class=""visual"">Clip 2<p>Press ""L""</p></div>
            </center>
            <p style=""text-align:center"">Which clip sounds more like someone who was born in Boston?</p>","l","","","","","","","","8","F5_04","M3_04","F5","M3","female","male","Oh my god.","They have to learn about what they're talking about.","long","2","1","",""
"","","","","","audio-keyboard-response","103","410256","0.0-103.0","","","","","","","","","","","","null","../audio/F1_04.WAV","null","F1_04","F1","female","1","3.175875","3.149","But majority of the time people offered to pick me up.","","","","","","","","","","","","","",""
"","","","","","audio-keyboard-response","104","411479","0.0-104.0","","","","","","","","","","","","null","../audio/M1_03.WAV","s","M1_03","M1","male","2","1.220375","5.087881591","Being in medical field.","","","","","","","","","","","","","",""
"","","","","","html-keyboard-response","105","413492","0.0-105.0","","","","","","","","","","","","190","
            <center>
                <div id=""clip1"" class=""visual"">Clip 1<p>Press ""S""</p></div>
                <div id=""clip2"" class=""visual"">Clip 2<p>Press ""L""</p></div>
            </center>
            <p style=""text-align:center"">Which clip sounds more like someone who was born in Boston?</p>","s","","","","","","","","9","F1_04","M1_03","F1","M1","female","male","But majority of the time people offered to pick me up.","Being in medical field.","long","2","1","",""
"","","","","","audio-keyboard-response","106","418140","0.0-106.0","","","","","","","","","","","","null","../audio/M4_03.WAV","null","M4_03","M4","male","1","2.137188","1.872","They didn't really respond.","","","","","","","","","","","","","",""
"","","","","","audio-keyboard-response","107","420176","0.0-107.0","","","","","","","","","","","","null","../audio/F1_03.WAV","s","F1_03","F1","female","2","2.034542","3.440","No, actually I was the only one.","","","","","","","","","","","","","",""
"","","","","","html-keyboard-response","108","422181","0.0-108.0","","","","","","","","","","","","136","
            <center>
                <div id=""clip1"" class=""visual"">Clip 1<p>Press ""S""</p></div>
                <div id=""clip2"" class=""visual"">Clip 2<p>Press ""L""</p></div>
            </center>
            <p style=""text-align:center"">Which clip sounds more like someone who was born in Boston?</p>","s","","","","","","","","10","M4_03","F1_03","M4","F1","male","female","They didn't really respond.","No, actually I was the only one.","long","2","1","",""
"","","","","","audio-keyboard-response","109","425687","0.0-109.0","","","","","","","","","","","","null","../audio/M1_04.WAV","null","M1_04","M1","male","1","0.999906","2.000188035","Parallel ways.","","","","","","","","","","","","","",""
"","","","","","audio-keyboard-response","110","426809","0.0-110.0","","","","","","","","","","","","null","../audio/M5_03.WAV","s","M5_03","M5","male","2","1.118844","3.576","I said, what is this?","","","","","","","","","","","","","",""
"","","","","","html-keyboard-response","111","428822","0.0-111.0","","","","","","","","","","","","34","
            <center>
                <div id=""clip1"" class=""visual"">Clip 1<p>Press ""S""</p></div>
                <div id=""clip2"" class=""visual"">Clip 2<p>Press ""L""</p></div>
            </center>
            <p style=""text-align:center"">Which clip sounds more like someone who was born in Boston?</p>","s","","","","","","","","11","M1_04","M5_03","M1","M5","male","male","Parallel ways.","I said, what is this?","long","2","1","",""
"","","","","","audio-keyboard-response","112","433072","0.0-112.0","","","","","","","","","","","","null","../audio/F3_03.WAV","null","F3_03","F3","female","1","1.738271","2.877","At least one family had moved.","","","","","","","","","","","","","",""
"","","","","","audio-keyboard-response","113","434006","0.0-113.0","","","","","","","","","","","","null","../audio/M2_03.WAV","s","M2_03","M2","male","2","0.928833","5.382","I just wanted to get up.","","","","","","","","","","","","","",""
"","","","","","html-keyboard-response","114","436013","0.0-114.0","","","","","","","","","","","","103","
            <center>
                <div id=""clip1"" class=""visual"">Clip 1<p>Press ""S""</p></div>
                <div id=""clip2"" class=""visual"">Clip 2<p>Press ""L""</p></div>
            </center>
            <p style=""text-align:center"">Which clip sounds more like someone who was born in Boston?</p>","s","","","","","","","","12","F3_03","M2_03","F3","M2","female","male","At least one family had moved.","I just wanted to get up.","long","2","1","",""
"","","","","","audio-keyboard-response","115","440662","0.0-115.0","","","","","","","","","","","","null","../audio/M4_03.WAV","null","M4_03","M4","male","1","2.137188","1.872","They didn't really respond.","","","","","","","","","","","","","",""
"","","","","","audio-keyboard-response","116","443839","0.0-116.0","","","","","","","","","","","","null","../audio/F1_04.WAV","s","F1_04","F1","female","2","3.175875","3.149","But majority of the time people offered to pick me up.","","","","","","","","","","","","","",""
"","","","","","html-keyboard-response","117","445842","0.0-117.0","","","","","","","","","","","","221","
            <center>
                <div id=""clip1"" class=""visual"">Clip 1<p>Press ""S""</p></div>
                <div id=""clip2"" class=""visual"">Clip 2<p>Press ""L""</p></div>
            </center>
            <p style=""text-align:center"">Which clip sounds more like someone who was born in Boston?</p>","s","","","","","","","","13","M4_03","F1_04","M4","F1","male","female","They didn't really respond.","But majority of the time people offered to pick me up.","long","2","1","",""
"","","","","","audio-keyboard-response","118","449571","0.0-118.0","","","","","","","","","","","","null","../audio/M1_03.WAV","null","M1_03","M1","male","1","1.220375","5.087881591","Being in medical field.","","","","","","","","","","","","","",""
"","","","","","audio-keyboard-response","119","450949","0.0-119.0","","","","","","","","","","","","null","../audio/F2_03.WAV","s","F2_03","F2","female","2","1.372927","5.098","And they charge lots and lots of money.","","","","","","","","","","","","","",""
"","","","","","html-keyboard-response","120","452962","0.0-120.0","","","","","","","","","","","","296","
            <center>
                <div id=""clip1"" class=""visual"">Clip 1<p>Press ""S""</p></div>
                <div id=""clip2"" class=""visual"">Clip 2<p>Press ""L""</p></div>
            </center>
            <p style=""text-align:center"">Which clip sounds more like someone who was born in Boston?</p>","s","","","","","","","","14","M1_03","F2_03","M1","F2","male","female","Being in medical field.","And they charge lots and lots of money.","long","2","1","",""
"","","","","","audio-keyboard-response","121","460196","0.0-121.0","","","","","","","","","","","","null","../audio/F2_04.WAV","null","F2_04","F2","female","1","4.716052","2.332","And then upstairs in her apartment, she would make rice wine.","","","","","","","","","","","","","",""
"","","","","","audio-keyboard-response","122","461034","0.0-122.0","","","","","","","","","","","","null","../audio/F5_04.WAV","s","F5_04","F5","female","2","0.83549","3.592","Oh my god.","","","","","","","","","","","","","",""
"","","","","","html-keyboard-response","123","463039","0.0-123.0","","","","","","","","","","","","456","
            <center>
                <div id=""clip1"" class=""visual"">Clip 1<p>Press ""S""</p></div>
                <div id=""clip2"" class=""visual"">Clip 2<p>Press ""L""</p></div>
            </center>
            <p style=""text-align:center"">Which clip sounds more like someone who was born in Boston?</p>","s","","","","","","","","15","F2_04","F5_04","F2","F5","female","female","And then upstairs in her apartment, she would make rice wine.","Oh my god.","long","2","1","",""
"","","","","","audio-keyboard-response","124","468239","0.0-124.0","","","","","","","","","","","","null","../audio/M5_04.WAV","null","M5_04","M5","male","1","2.679688","2.612","We have a very enjoyable life, nothing.","","","","","","","","","","","","","",""
"","","","","","audio-keyboard-response","125","471405","0.0-125.0","","","","","","","","","","","","null","../audio/F5_03.WAV","s","F5_03","F5","female","2","3.162094","2.530","It was a totally new experience to me.","","","","","","","","","","","","","",""
"","","","","","html-keyboard-response","126","473420","0.0-126.0","","","","","","","","","","","","311","
            <center>
                <div id=""clip1"" class=""visual"">Clip 1<p>Press ""S""</p></div>
                <div id=""clip2"" class=""visual"">Clip 2<p>Press ""L""</p></div>
            </center>
            <p style=""text-align:center"">Which clip sounds more like someone who was born in Boston?</p>","s","","","","","","","","16","M5_04","F5_03","M5","F5","male","female","We have a very enjoyable life, nothing.","It was a totally new experience to me.","long","2","1","",""
"","","","","","audio-keyboard-response","127","477591","0.0-127.0","","","","","","","","","","","","null","../audio/F3_04.WAV","null","F3_04","F3","female","1","1.651802","4.843","There were a lot of children in the area.","","","","","","","","","","","","","",""
"","","","","","audio-keyboard-response","128","479779","0.0-128.0","","","","","","","","","","","","null","../audio/M2_04.WAV","s","M2_04","M2","male","2","2.180729","2.751","People just focus on making money.","","","","","","","","","","","","","",""
"","","","","","html-keyboard-response","129","481791","0.0-129.0","","","","","","","","","","","","313","
            <center>
                <div id=""clip1"" class=""visual"">Clip 1<p>Press ""S""</p></div>
                <div id=""clip2"" class=""visual"">Clip 2<p>Press ""L""</p></div>
            </center>
            <p style=""text-align:center"">Which clip sounds more like someone who was born in Boston?</p>","s","","","","","","","","17","F3_04","M2_04","F3","M2","female","male","There were a lot of children in the area.","People just focus on making money.","long","2","1","",""
"","","","","","audio-keyboard-response","130","485822","0.0-130.0","","","","","","","","","","","","null","../audio/F4_04.WAV","null","F4_04","F4","female","1","1.514","3.303","It was hard for my mom.","","","","","","","","","","","","","",""
"","","","","","audio-keyboard-response","131","489499","0.0-131.0","","","","","","","","","","","","null","../audio/F4_03.WAV","s","F4_03","F4","female","2","3.670938","3.269","Yeah, it was an apartment building. It was like a one-bedroom","","","","","","","","","","","","","",""
"","","","","","html-keyboard-response","132","491511","0.0-132.0","","","","","","","","","","","","416","
            <center>
                <div id=""clip1"" class=""visual"">Clip 1<p>Press ""S""</p></div>
                <div id=""clip2"" class=""visual"">Clip 2<p>Press ""L""</p></div>
            </center>
            <p style=""text-align:center"">Which clip sounds more like someone who was born in Boston?</p>","s","","","","","","","","18","F4_04","F4_03","F4","F4","female","female","It was hard for my mom.","Yeah, it was an apartment building. It was like a one-bedroom","long","2","1","",""
"","","","","","audio-keyboard-response","133","496051","0.0-133.0","","","","","","","","","","","","null","../audio/F1_03.WAV","null","F1_03","F1","female","1","2.034542","3.440","No, actually I was the only one.","","","","","","","","","","","","","",""
"","","","","","audio-keyboard-response","134","498619","0.0-134.0","","","","","","","","","","","","null","../audio/M3_04.WAV","s","M3_04","M3","male","2","2.564635","3.508","They have to learn about what they're talking about.","","","","","","","","","","","","","",""
"","","","","","html-keyboard-response","135","500622","0.0-135.0","","","","","","","","","","","","39","
            <center>
                <div id=""clip1"" class=""visual"">Clip 1<p>Press ""S""</p></div>
                <div id=""clip2"" class=""visual"">Clip 2<p>Press ""L""</p></div>
            </center>
            <p style=""text-align:center"">Which clip sounds more like someone who was born in Boston?</p>","s","","","","","","","","19","F1_03","M3_04","F1","M3","female","male","No, actually I was the only one.","They have to learn about what they're talking about.","long","2","1","",""
"","","","","","audio-keyboard-response","136","505670","0.0-136.0","","","","","","","","","","","","null","../audio/M4_04.WAV","null","M4_04","M4","male","1","2.538281","2.364","The most intimate group of friends.","","","","","","","","","","","","","",""
"","","","","","audio-keyboard-response","137","507159","0.0-137.0","","","","","","","","","","","","null","../audio/M3_03.WAV","l","M3_03","M3","male","2","1.483458","3.371","Not too far away from here.","","","","","","","","","","","","","",""
"","","","","","html-keyboard-response","138","509174","0.0-138.0","","","","","","","","","","","","33","
            <center>
                <div id=""clip1"" class=""visual"">Clip 1<p>Press ""S""</p></div>
                <div id=""clip2"" class=""visual"">Clip 2<p>Press ""L""</p></div>
            </center>
            <p style=""text-align:center"">Which clip sounds more like someone who was born in Boston?</p>","l","","","","","","","","20","M4_04","M3_03","M4","M3","male","male","The most intimate group of friends.","Not too far away from here.","long","2","1","",""
"","","","","","audio-keyboard-response","139","515366","0.0-139.0","","","","","","","","","","","","null","../audio/F4_03.WAV","null","F4_03","F4","female","1","3.670938","3.269","Yeah, it was an apartment building. It was like a one-bedroom","","","","","","","","","","","","","",""
"","","","","","audio-keyboard-response","140","516202","0.0-140.0","","","","","","","","","","","","null","../audio/F5_04.WAV","l","F5_04","F5","female","2","0.83549","3.592","Oh my god.","","","","","","","","","","","","","",""
"","","","","","html-keyboard-response","141","518207","0.0-141.0","","","","","","","","","","","","125","
            <center>
                <div id=""clip1"" class=""visual"">Clip 1<p>Press ""S""</p></div>
                <div id=""clip2"" class=""visual"">Clip 2<p>Press ""L""</p></div>
            </center>
            <p style=""text-align:center"">Which clip sounds more like someone who was born in Boston?</p>","l","","","","","","","","1","F4_03","F5_04","F4","F5","female","female","Yeah, it was an apartment building. It was like a one-bedroom","Oh my god.","long","3","1","",""
"","","","","","audio-keyboard-response","142","522377","0.0-142.0","","","","","","","","","","","","null","../audio/F3_04.WAV","null","F3_04","F3","female","1","1.651802","4.843","There were a lot of children in the area.","","","","","","","","","","","","","",""
"","","","","","audio-keyboard-response","143","524559","0.0-143.0","","","","","","","","","","","","null","../audio/M2_04.WAV","l","M2_04","M2","male","2","2.180729","2.751","People just focus on making money.","","","","","","","","","","","","","",""
"","","","","","html-keyboard-response","144","526565","0.0-144.0","","","","","","","","","","","","331","
            <center>
                <div id=""clip1"" class=""visual"">Clip 1<p>Press ""S""</p></div>
                <div id=""clip2"" class=""visual"">Clip 2<p>Press ""L""</p></div>
            </center>
            <p style=""text-align:center"">Which clip sounds more like someone who was born in Boston?</p>","l","","","","","","","","2","F3_04","M2_04","F3","M2","female","male","There were a lot of children in the area.","People just focus on making money.","long","3","1","",""
"","","","","","audio-keyboard-response","145","530082","0.0-145.0","","","","","","","","","","","","null","../audio/M1_04.WAV","null","M1_04","M1","male","1","0.999906","2.000188035","Parallel ways.","","","","","","","","","","","","","",""
"","","","","","audio-keyboard-response","146","531569","0.0-146.0","","","","","","","","","","","","null","../audio/M3_03.WAV","l","M3_03","M3","male","2","1.483458","3.371","Not too far away from here.","","","","","","","","","","","","","",""
"","","","","","html-keyboard-response","147","533578","0.0-147.0","","","","","","","","","","","","47","
            <center>
                <div id=""clip1"" class=""visual"">Clip 1<p>Press ""S""</p></div>
                <div id=""clip2"" class=""visual"">Clip 2<p>Press ""L""</p></div>
            </center>
            <p style=""text-align:center"">Which clip sounds more like someone who was born in Boston?</p>","l","","","","","","","","3","M1_04","M3_03","M1","M3","male","male","Parallel ways.","Not too far away from here.","long","3","1","",""
"","","","","","audio-keyboard-response","148","539261","0.0-148.0","","","","","","","","","","","","null","../audio/F5_03.WAV","null","F5_03","F5","female","1","3.162094","2.530","It was a totally new experience to me.","","","","","","","","","","","","","",""
"","","","","","audio-keyboard-response","149","540381","0.0-149.0","","","","","","","","","","","","null","../audio/M5_03.WAV","l","M5_03","M5","male","2","1.118844","3.576","I said, what is this?","","","","","","","","","","","","","",""
"","","","","","html-keyboard-response","150","542394","0.0-150.0","","","","","","","","","","","","215","
            <center>
                <div id=""clip1"" class=""visual"">Clip 1<p>Press ""S""</p></div>
                <div id=""clip2"" class=""visual"">Clip 2<p>Press ""L""</p></div>
            </center>
            <p style=""text-align:center"">Which clip sounds more like someone who was born in Boston?</p>","l","","","","","","","","4","F5_03","M5_03","F5","M5","female","male","It was a totally new experience to me.","I said, what is this?","long","3","1","",""
"","","","","","audio-keyboard-response","151","546129","0.0-151.0","","","","","","","","","","","","null","../audio/M1_03.WAV","null","M1_03","M1","male","1","1.220375","5.087881591","Being in medical field.","","","","","","","","","","","","","",""
"","","","","","audio-keyboard-response","152","550849","0.0-152.0","","","","","","","","","","","","null","../audio/F2_04.WAV","l","F2_04","F2","female","2","4.716052","2.332","And then upstairs in her apartment, she would make rice wine.","","","","","","","","","","","","","",""
"","","","","","html-keyboard-response","153","552853","0.0-153.0","","","","","","","","","","","","117","
            <center>
                <div id=""clip1"" class=""visual"">Clip 1<p>Press ""S""</p></div>
                <div id=""clip2"" class=""visual"">Clip 2<p>Press ""L""</p></div>
            </center>
            <p style=""text-align:center"">Which clip sounds more like someone who was born in Boston?</p>","l","","","","","","","","5","M1_03","F2_04","M1","F2","male","female","Being in medical field.","And then upstairs in her apartment, she would make rice wine.","long","3","1","",""
"","","","","","audio-keyboard-response","154","557402","0.0-154.0","","","","","","","","","","","","null","../audio/F1_03.WAV","null","F1_03","F1","female","1","2.034542","3.440","No, actually I was the only one.","","","","","","","","","","","","","",""
"","","","","","audio-keyboard-response","155","559969","0.0-155.0","","","","","","","","","","","","null","../audio/M3_04.WAV","l","M3_04","M3","male","2","2.564635","3.508","They have to learn about what they're talking about.","","","","","","","","","","","","","",""
"","","","","","html-keyboard-response","156","561970","0.0-156.0","","","","","","","","","","","","10","
            <center>
                <div id=""clip1"" class=""visual"">Clip 1<p>Press ""S""</p></div>
                <div id=""clip2"" class=""visual"">Clip 2<p>Press ""L""</p></div>
            </center>
            <p style=""text-align:center"">Which clip sounds more like someone who was born in Boston?</p>","l","","","","","","","","6","F1_03","M3_04","F1","M3","female","male","No, actually I was the only one.","They have to learn about what they're talking about.","long","3","1","",""
"","","","","","audio-keyboard-response","157","565850","0.0-157.0","","","","","","","","","","","","null","../audio/F2_03.WAV","null","F2_03","F2","female","1","1.372927","5.098","And they charge lots and lots of money.","","","","","","","","","","","","","",""
"","","","","","audio-keyboard-response","158","567599","0.0-158.0","","","","","","","","","","","","null","../audio/F3_03.WAV","l","F3_03","F3","female","2","1.738271","2.877","At least one family had moved.","","","","","","","","","","","","","",""
"","","","","","html-keyboard-response","159","569604","0.0-159.0","","","","","","","","","","","","76","
            <center>
                <div id=""clip1"" class=""visual"">Clip 1<p>Press ""S""</p></div>
                <div id=""clip2"" class=""visual"">Clip 2<p>Press ""L""</p></div>
            </center>
            <p style=""text-align:center"">Which clip sounds more like someone who was born in Boston?</p>","l","","","","","","","","7","F2_03","F3_03","F2","F3","female","female","And they charge lots and lots of money.","At least one family had moved.","long","3","1","",""
"","","","","","audio-keyboard-response","160","574250","0.0-160.0","","","","","","","","","","","","null","../audio/M4_03.WAV","null","M4_03","M4","male","1","2.137188","1.872","They didn't really respond.","","","","","","","","","","","","","",""
"","","","","","audio-keyboard-response","161","576938","0.0-161.0","","","","","","","","","","","","null","../audio/M5_04.WAV","l","M5_04","M5","male","2","2.679688","2.612","We have a very enjoyable life, nothing.","","","","","","","","","","","","","",""
"","","","","","html-keyboard-response","162","578949","0.0-162.0","","","","","","","","","","","","107","
            <center>
                <div id=""clip1"" class=""visual"">Clip 1<p>Press ""S""</p></div>
                <div id=""clip2"" class=""visual"">Clip 2<p>Press ""L""</p></div>
            </center>
            <p style=""text-align:center"">Which clip sounds more like someone who was born in Boston?</p>","l","","","","","","","","8","M4_03","M5_04","M4","M5","male","male","They didn't really respond.","We have a very enjoyable life, nothing.","long","3","1","",""
"","","","","","audio-keyboard-response","163","584634","0.0-163.0","","","","","","","","","","","","null","../audio/F1_04.WAV","null","F1_04","F1","female","1","3.175875","3.149","But majority of the time people offered to pick me up.","","","","","","","","","","","","","",""
"","","","","","audio-keyboard-response","164","586161","0.0-164.0","","","","","","","","","","","","null","../audio/F4_04.WAV","l","F4_04","F4","female","2","1.514","3.303","It was hard for my mom.","","","","","","","","","","","","","",""
"","","","","","html-keyboard-response","165","588167","0.0-165.0","","","","","","","","","","","","45","
            <center>
                <div id=""clip1"" class=""visual"">Clip 1<p>Press ""S""</p></div>
                <div id=""clip2"" class=""visual"">Clip 2<p>Press ""L""</p></div>
            </center>
            <p style=""text-align:center"">Which clip sounds more like someone who was born in Boston?</p>","l","","","","","","","","9","F1_04","F4_04","F1","F4","female","female","But majority of the time people offered to pick me up.","It was hard for my mom.","long","3","1","",""
"","","","","","audio-keyboard-response","166","591609","0.0-166.0","","","","","","","","","","","","null","../audio/M2_03.WAV","null","M2_03","M2","male","1","0.928833","5.382","I just wanted to get up.","","","","","","","","","","","","","",""
"","","","","","audio-keyboard-response","167","594149","0.0-167.0","","","","","","","","","","","","null","../audio/M4_04.WAV","l","M4_04","M4","male","2","2.538281","2.364","The most intimate group of friends.","","","","","","","","","","","","","",""
"","","","","","html-keyboard-response","168","596161","0.0-168.0","","","","","","","","","","","","244","
            <center>
                <div id=""clip1"" class=""visual"">Clip 1<p>Press ""S""</p></div>
                <div id=""clip2"" class=""visual"">Clip 2<p>Press ""L""</p></div>
            </center>
            <p style=""text-align:center"">Which clip sounds more like someone who was born in Boston?</p>","l","","","","","","","","10","M2_03","M4_04","M2","M4","male","male","I just wanted to get up.","The most intimate group of friends.","long","3","1","",""
"","","","","","audio-keyboard-response","169","600406","0.0-169.0","","","","","","","","","","","","null","../audio/F3_03.WAV","null","F3_03","F3","female","1","1.738271","2.877","At least one family had moved.","","","","","","","","","","","","","",""
"","","","","","audio-keyboard-response","170","604077","0.0-170.0","","","","","","","","","","","","null","../audio/F4_03.WAV","l","F4_03","F4","female","2","3.670938","3.269","Yeah, it was an apartment building. It was like a one-bedroom","","","","","","","","","","","","","",""
"","","","","","html-keyboard-response","171","606081","0.0-171.0","","","","","","","","","","","","37","
            <center>
                <div id=""clip1"" class=""visual"">Clip 1<p>Press ""S""</p></div>
                <div id=""clip2"" class=""visual"">Clip 2<p>Press ""L""</p></div>
            </center>
            <p style=""text-align:center"">Which clip sounds more like someone who was born in Boston?</p>","l","","","","","","","","11","F3_03","F4_03","F3","F4","female","female","At least one family had moved.","Yeah, it was an apartment building. It was like a one-bedroom","long","3","1","",""
"","","","","","audio-keyboard-response","172","610072","0.0-172.0","","","","","","","","","","","","null","../audio/M3_03.WAV","null","M3_03","M3","male","1","1.483458","3.371","Not too far away from here.","","","","","","","","","","","","","",""
"","","","","","audio-keyboard-response","173","612759","0.0-173.0","","","","","","","","","","","","null","../audio/M5_04.WAV","l","M5_04","M5","male","2","2.679688","2.612","We have a very enjoyable life, nothing.","","","","","","","","","","","","","",""
"","","","","","html-keyboard-response","174","614774","0.0-174.0","","","","","","","","","","","","199","
            <center>
                <div id=""clip1"" class=""visual"">Clip 1<p>Press ""S""</p></div>
                <div id=""clip2"" class=""visual"">Clip 2<p>Press ""L""</p></div>
            </center>
            <p style=""text-align:center"">Which clip sounds more like someone who was born in Boston?</p>","l","","","","","","","","12","M3_03","M5_04","M3","M5","male","male","Not too far away from here.","We have a very enjoyable life, nothing.","long","3","1","",""
"","","","","","audio-keyboard-response","175","618663","0.0-175.0","","","","","","","","","","","","null","../audio/F2_03.WAV","null","F2_03","F2","female","1","1.372927","5.098","And they charge lots and lots of money.","","","","","","","","","","","","","",""
"","","","","","audio-keyboard-response","176","620847","0.0-176.0","","","","","","","","","","","","null","../audio/M2_04.WAV","l","M2_04","M2","male","2","2.180729","2.751","People just focus on making money.","","","","","","","","","","","","","",""
"","","","","","html-keyboard-response","177","622857","0.0-177.0","","","","","","","","","","","","219","
            <center>
                <div id=""clip1"" class=""visual"">Clip 1<p>Press ""S""</p></div>
                <div id=""clip2"" class=""visual"">Clip 2<p>Press ""L""</p></div>
            </center>
            <p style=""text-align:center"">Which clip sounds more like someone who was born in Boston?</p>","l","","","","","","","","13","F2_03","M2_04","F2","M2","female","male","And they charge lots and lots of money.","People just focus on making money.","long","3","1","",""
"","","","","","audio-keyboard-response","178","627523","0.0-178.0","","","","","","","","","","","","null","../audio/M4_03.WAV","null","M4_03","M4","male","1","2.137188","1.872","They didn't really respond.","","","","","","","","","","","","","",""
"","","","","","audio-keyboard-response","179","628529","0.0-179.0","","","","","","","","","","","","null","../audio/M1_04.WAV","l","M1_04","M1","male","2","0.999906","2.000188035","Parallel ways.","","","","","","","","","","","","","",""
"","","","","","html-keyboard-response","180","630537","0.0-180.0","","","","","","","","","","","","48","
            <center>
                <div id=""clip1"" class=""visual"">Clip 1<p>Press ""S""</p></div>
                <div id=""clip2"" class=""visual"">Clip 2<p>Press ""L""</p></div>
            </center>
            <p style=""text-align:center"">Which clip sounds more like someone who was born in Boston?</p>","l","","","","","","","","14","M4_03","M1_04","M4","M1","male","male","They didn't really respond.","Parallel ways.","long","3","1","",""
"","","","","","audio-keyboard-response","181","635086","0.0-181.0","","","","","","","","","","","","null","../audio/F1_03.WAV","null","F1_03","F1","female","1","2.034542","3.440","No, actually I was the only one.","","","","","","","","","","","","","",""
"","","","","","audio-keyboard-response","182","638277","0.0-182.0","","","","","","","","","","","","null","../audio/F1_04.WAV","l","F1_04","F1","female","2","3.175875","3.149","But majority of the time people offered to pick me up.","","","","","","","","","","","","","",""
"","","","","","html-keyboard-response","183","640286","0.0-183.0","","","","","","","","","","","","135","
            <center>
                <div id=""clip1"" class=""visual"">Clip 1<p>Press ""S""</p></div>
                <div id=""clip2"" class=""visual"">Clip 2<p>Press ""L""</p></div>
            </center>
            <p style=""text-align:center"">Which clip sounds more like someone who was born in Boston?</p>","l","","","","","","","","15","F1_03","F1_04","F1","F1","female","female","No, actually I was the only one.","But majority of the time people offered to pick me up.","long","3","1","",""
"","","","","","audio-keyboard-response","184","643727","0.0-184.0","","","","","","","","","","","","null","../audio/M2_03.WAV","null","M2_03","M2","male","1","0.928833","5.382","I just wanted to get up.","","","","","","","","","","","","","",""
"","","","","","audio-keyboard-response","185","644849","0.0-185.0","","","","","","","","","","","","null","../audio/M5_03.WAV","l","M5_03","M5","male","2","1.118844","3.576","I said, what is this?","","","","","","","","","","","","","",""
"","","","","","html-keyboard-response","186","646852","0.0-186.0","","","","","","","","","","","","180","
            <center>
                <div id=""clip1"" class=""visual"">Clip 1<p>Press ""S""</p></div>
                <div id=""clip2"" class=""visual"">Clip 2<p>Press ""L""</p></div>
            </center>
            <p style=""text-align:center"">Which clip sounds more like someone who was born in Boston?</p>","l","","","","","","","","16","M2_03","M5_03","M2","M5","male","male","I just wanted to get up.","I said, what is this?","long","3","1","",""
"","","","","","audio-keyboard-response","187","650197","0.0-187.0","","","","","","","","","","","","null","../audio/F5_04.WAV","null","F5_04","F5","female","1","0.83549","3.592","Oh my god.","","","","","","","","","","","","","",""
"","","","","","audio-keyboard-response","188","651849","0.0-188.0","","","","","","","","","","","","null","../audio/F3_04.WAV","l","F3_04","F3","female","2","1.651802","4.843","There were a lot of children in the area.","","","","","","","","","","","","","",""
"","","","","","html-keyboard-response","189","653864","0.0-189.0","","","","","","","","","","","","205","
            <center>
                <div id=""clip1"" class=""visual"">Clip 1<p>Press ""S""</p></div>
                <div id=""clip2"" class=""visual"">Clip 2<p>Press ""L""</p></div>
            </center>
            <p style=""text-align:center"">Which clip sounds more like someone who was born in Boston?</p>","l","","","","","","","","17","F5_04","F3_04","F5","F3","female","female","Oh my god.","There were a lot of children in the area.","long","3","1","",""
"","","","","","audio-keyboard-response","190","661107","0.0-190.0","","","","","","","","","","","","null","../audio/F2_04.WAV","null","F2_04","F2","female","1","4.716052","2.332","And then upstairs in her apartment, she would make rice wine.","","","","","","","","","","","","","",""
"","","","","","audio-keyboard-response","191","662630","0.0-191.0","","","","","","","","","","","","null","../audio/F4_04.WAV","l","F4_04","F4","female","2","1.514","3.303","It was hard for my mom.","","","","","","","","","","","","","",""
"","","","","","html-keyboard-response","192","664632","0.0-192.0","","","","","","","","","","","","122","
            <center>
                <div id=""clip1"" class=""visual"">Clip 1<p>Press ""S""</p></div>
                <div id=""clip2"" class=""visual"">Clip 2<p>Press ""L""</p></div>
            </center>
            <p style=""text-align:center"">Which clip sounds more like someone who was born in Boston?</p>","l","","","","","","","","18","F2_04","F4_04","F2","F4","female","female","And then upstairs in her apartment, she would make rice wine.","It was hard for my mom.","long","3","1","",""
"","","","","","audio-keyboard-response","193","669689","0.0-193.0","","","","","","","","","","","","null","../audio/M4_04.WAV","null","M4_04","M4","male","1","2.538281","2.364","The most intimate group of friends.","","","","","","","","","","","","","",""
"","","","","","audio-keyboard-response","194","670918","0.0-194.0","","","","","","","","","","","","null","../audio/M1_03.WAV","l","M1_03","M1","male","2","1.220375","5.087881591","Being in medical field.","","","","","","","","","","","","","",""
"","","","","","html-keyboard-response","195","672926","0.0-195.0","","","","","","","","","","","","63","
            <center>
                <div id=""clip1"" class=""visual"">Clip 1<p>Press ""S""</p></div>
                <div id=""clip2"" class=""visual"">Clip 2<p>Press ""L""</p></div>
            </center>
            <p style=""text-align:center"">Which clip sounds more like someone who was born in Boston?</p>","l","","","","","","","","19","M4_04","M1_03","M4","M1","male","male","The most intimate group of friends.","Being in medical field.","long","3","1","",""
"","","","","","audio-keyboard-response","196","677997","0.0-196.0","","","","","","","","","","","","null","../audio/M3_04.WAV","null","M3_04","M3","male","1","2.564635","3.508","They have to learn about what they're talking about.","","","","","","","","","","","","","",""
"","","","","","audio-keyboard-response","197","681166","0.0-197.0","","","","","","","","","","","","null","../audio/F5_03.WAV","l","F5_03","F5","female","2","3.162094","2.530","It was a totally new experience to me.","","","","","","","","","","","","","",""
"","","","","","html-keyboard-response","198","683175","0.0-198.0","","","","","","","","","","","","133","
            <center>
                <div id=""clip1"" class=""visual"">Clip 1<p>Press ""S""</p></div>
                <div id=""clip2"" class=""visual"">Clip 2<p>Press ""L""</p></div>
            </center>
            <p style=""text-align:center"">Which clip sounds more like someone who was born in Boston?</p>","l","","","","","","","","20","M3_04","F5_03","M3","F5","male","female","They have to learn about what they're talking about.","It was a totally new experience to me.","long","3","1","",""
"","","","","","audio-keyboard-response","199","687393","0.0-199.0","","","","","","","","","","","","null","../audio/M3_02.WAV","null","M3_02","M3","male","1","1.70975","2.924","And then on Sunday morning","","","","","","","","","","","","","",""
"","","","","","audio-keyboard-response","200","688957","0.0-200.0","","","","","","","","","","","","null","../audio/M5_02.WAV","l","M5_02","M5","male","2","1.560854","3.204","In December, it was cold.","","","","","","","","","","","","","",""
"","","","","","html-keyboard-response","201","690964","0.0-201.0","","","","","","","","","","","","246","
            <center>
                <div id=""clip1"" class=""visual"">Clip 1<p>Press ""S""</p></div>
                <div id=""clip2"" class=""visual"">Clip 2<p>Press ""L""</p></div>
            </center>
            <p style=""text-align:center"">Which clip sounds more like someone who was born in Boston?</p>","l","","","","","","","","1","M3_02","M5_02","M3","M5","male","male","And then on Sunday morning","In December, it was cold.","short","4","1","",""
"","","","","","audio-keyboard-response","202","695260","0.0-202.0","","","","","","","","","","","","null","../audio/M4_02.WAV","null","M4_02","M4","male","1","1.785187","3.361","I'm still struggling to be honest.","","","","","","","","","","","","","",""
"","","","","","audio-keyboard-response","203","698178","0.0-203.0","","","","","","","","","","","","null","../audio/F4_02.WAV","l","F4_02","F4","female","2","2.916635","2.058","Yeah, a little bit, like elementary school.","","","","","","","","","","","","","",""
"","","","","","html-keyboard-response","204","700187","0.0-204.0","","","","","","","","","","","","150","
            <center>
                <div id=""clip1"" class=""visual"">Clip 1<p>Press ""S""</p></div>
                <div id=""clip2"" class=""visual"">Clip 2<p>Press ""L""</p></div>
            </center>
            <p style=""text-align:center"">Which clip sounds more like someone who was born in Boston?</p>","l","","","","","","","","2","M4_02","F4_02","M4","F4","male","female","I'm still struggling to be honest.","Yeah, a little bit, like elementary school.","short","4","1","",""
"","","","","","audio-keyboard-response","205","704708","0.0-205.0","","","","","","","","","","","","null","../audio/F5_02.WAV","null","F5_02","F5","female","1","2.006958","2.491","We sort of like stay together.","","","","","","","","","","","","","",""
"","","","","","audio-keyboard-response","206","709149","0.0-206.0","","","","","","","","","","","","null","../audio/F3_02.WAV","l","F3_02","F3","female","2","4.438833","2.253","So it wasn't residential on both sides of the street...","","","","","","","","","","","","","",""
"","","","","","html-keyboard-response","207","711156","0.0-207.0","","","","","","","","","","","","347","
            <center>
                <div id=""clip1"" class=""visual"">Clip 1<p>Press ""S""</p></div>
                <div id=""clip2"" class=""visual"">Clip 2<p>Press ""L""</p></div>
            </center>
            <p style=""text-align:center"">Which clip sounds more like someone who was born in Boston?</p>","l","","","","","","","","3","F5_02","F3_02","F5","F3","female","female","We sort of like stay together.","So it wasn't residential on both sides of the street...","short","4","1","",""
"","","","","","audio-keyboard-response","208","715333","0.0-208.0","","","","","","","","","","","","null","../audio/M3_01.WAV","null","M3_01","M3","male","1","1.659469","2.411","To further my education.","","","","","","","","","","","","","",""
"","","","","","audio-keyboard-response","209","717448","0.0-209.0","","","","","","","","","","","","null","../audio/M4_01.WAV","l","M4_01","M4","male","2","2.112052","2.841","The main source is from class.","","","","","","","","","","","","","",""
"","","","","","html-keyboard-response","210","719464","0.0-210.0","","","","","","","","","","","","270","
            <center>
                <div id=""clip1"" class=""visual"">Clip 1<p>Press ""S""</p></div>
                <div id=""clip2"" class=""visual"">Clip 2<p>Press ""L""</p></div>
            </center>
            <p style=""text-align:center"">Which clip sounds more like someone who was born in Boston?</p>","l","","","","","","","","4","M3_01","M4_01","M3","M4","male","male","To further my education.","The main source is from class.","short","4","1","",""
"","","","","","audio-keyboard-response","211","723970","0.0-211.0","","","","","","","","","","","","null","../audio/M5_01.WAV","null","M5_01","M5","male","1","2.002865","2.994","All of us were very young, so...","","","","","","","","","","","","","",""
"","","","","","audio-keyboard-response","212","727171","0.0-212.0","","","","","","","","","","","","null","../audio/F2_01.WAV","l","F2_01","F2","female","2","3.200677","1.250","It's head-to-tail restaurant.","","","","","","","","","","","","","",""
"","","","","","html-keyboard-response","213","729176","0.0-213.0","","","","","","","","","","","","251","
            <center>
                <div id=""clip1"" class=""visual"">Clip 1<p>Press ""S""</p></div>
                <div id=""clip2"" class=""visual"">Clip 2<p>Press ""L""</p></div>
            </center>
            <p style=""text-align:center"">Which clip sounds more like someone who was born in Boston?</p>","l","","","","","","","","5","M5_01","F2_01","M5","F2","male","female","All of us were very young, so...","It's head-to-tail restaurant.","short","4","1","",""
"","","","","","audio-keyboard-response","214","734696","0.0-214.0","","","","","","","","","","","","null","../audio/M2_01.WAV","null","M2_01","M2","male","1","3.0","2.667","The airport is basically a one-story building.","","","","","","","","","","","","","",""
"","","","","","audio-keyboard-response","215","735737","0.0-215.0","","","","","","","","","","","","null","../audio/M2_02.WAV","l","M2_02","M2","male","2","1.039885","3.846","So that was great.","","","","","","","","","","","","","",""
"","","","","","html-keyboard-response","216","737741","0.0-216.0","","","","","","","","","","","","62","
            <center>
                <div id=""clip1"" class=""visual"">Clip 1<p>Press ""S""</p></div>
                <div id=""clip2"" class=""visual"">Clip 2<p>Press ""L""</p></div>
            </center>
            <p style=""text-align:center"">Which clip sounds more like someone who was born in Boston?</p>","l","","","","","","","","6","M2_01","M2_02","M2","M2","male","male","The airport is basically a one-story building.","So that was great.","short","4","1","",""
"","","","","","audio-keyboard-response","217","744516","0.0-217.0","","","","","","","","","","","","null","../audio/F3_01.WAV","null","F3_01","F3","female","1","4.267563","1.875","My parents, my two sisters, and my two brothers.","","","","","","","","","","","","","",""
"","","","","","audio-keyboard-response","218","746352","0.0-218.0","","","","","","","","","","","","null","../audio/F4_01.WAV","l","F4_01","F4","female","2","1.835479","2.724","Probably right before I turn six.","","","","","","","","","","","","","",""
"","","","","","html-keyboard-response","219","748356","0.0-219.0","","","","","","","","","","","","55","
            <center>
                <div id=""clip1"" class=""visual"">Clip 1<p>Press ""S""</p></div>
                <div id=""clip2"" class=""visual"">Clip 2<p>Press ""L""</p></div>
            </center>
            <p style=""text-align:center"">Which clip sounds more like someone who was born in Boston?</p>","l","","","","","","","","7","F3_01","F4_01","F3","F4","female","female","My parents, my two sisters, and my two brothers.","Probably right before I turn six.","short","4","1","",""
"","","","","","audio-keyboard-response","220","753784","0.0-220.0","","","","","","","","","","","","null","../audio/F2_02.WAV","null","F2_02","F2","female","1","2.902938","4.134","They buy a whole pig and then they eat their way through it.","","","","","","","","","","","","","",""
"","","","","","audio-keyboard-response","221","754929","0.0-221.0","","","","","","","","","","","","null","../audio/F5_01.WAV","l","F5_01","F5","female","2","1.144573","3.495","He worked very hard.","","","","","","","","","","","","","",""
"","","","","","html-keyboard-response","222","756937","0.0-222.0","","","","","","","","","","","","224","
            <center>
                <div id=""clip1"" class=""visual"">Clip 1<p>Press ""S""</p></div>
                <div id=""clip2"" class=""visual"">Clip 2<p>Press ""L""</p></div>
            </center>
            <p style=""text-align:center"">Which clip sounds more like someone who was born in Boston?</p>","l","","","","","","","","8","F2_02","F5_01","F2","F5","female","female","They buy a whole pig and then they eat their way through it.","He worked very hard.","short","4","1","",""
"","","","","","audio-keyboard-response","223","760930","0.0-223.0","","","","","","","","","","","","null","../audio/M1_01.WAV","null","M1_01","M1","male","1","1.480896","5.043558001","You kind of get spoiled.","","","","","","","","","","","","","",""
"","","","","","audio-keyboard-response","224","763388","0.0-224.0","","","","","","","","","","","","null","../audio/F1_02.WAV","l","F1_02","F1","female","2","2.456333","2.442","I end up going to high school.","","","","","","","","","","","","","",""
"","","","","","html-keyboard-response","225","765402","0.0-225.0","","","","","","","","","","","","79","
            <center>
                <div id=""clip1"" class=""visual"">Clip 1<p>Press ""S""</p></div>
                <div id=""clip2"" class=""visual"">Clip 2<p>Press ""L""</p></div>
            </center>
            <p style=""text-align:center"">Which clip sounds more like someone who was born in Boston?</p>","l","","","","","","","","9","M1_01","F1_02","M1","F1","male","female","You kind of get spoiled.","I end up going to high school.","short","4","1","",""
"","","","","","audio-keyboard-response","226","770640","0.0-226.0","","","","","","","","","","","","null","../audio/F1_01.WAV","null","F1_01","F1","female","1","2.72926","1.832","Because of the limited space.","","","","","","","","","","","","","",""
"","","","","","audio-keyboard-response","227","772149","0.0-227.0","","","","","","","","","","","","null","../audio/M1_02.WAV","s","M1_02","M1","male","2","1.508312","4.539559014","It's a really nice place to live.","","","","","","","","","","","","","",""
"","","","","","html-keyboard-response","228","774160","0.0-228.0","","","","","","","","","","","","126","
            <center>
                <div id=""clip1"" class=""visual"">Clip 1<p>Press ""S""</p></div>
                <div id=""clip2"" class=""visual"">Clip 2<p>Press ""L""</p></div>
            </center>
            <p style=""text-align:center"">Which clip sounds more like someone who was born in Boston?</p>","s","","","","","","","","10","F1_01","M1_02","F1","M1","female","male","Because of the limited space.","It's a really nice place to live.","short","4","1","",""
"","","","","","audio-keyboard-response","229","778515","0.0-229.0","","","","","","","","","","","","null","../audio/F4_01.WAV","null","F4_01","F4","female","1","1.835479","2.724","Probably right before I turn six.","","","","","","","","","","","","","",""
"","","","","","audio-keyboard-response","230","780029","0.0-230.0","","","","","","","","","","","","null","../audio/M1_02.WAV","s","M1_02","M1","male","2","1.508312","4.539559014","It's a really nice place to live.","","","","","","","","","","","","","",""
"","","","","","html-keyboard-response","231","782044","0.0-231.0","","","","","","","","","","","","124","
            <center>
                <div id=""clip1"" class=""visual"">Clip 1<p>Press ""S""</p></div>
                <div id=""clip2"" class=""visual"">Clip 2<p>Press ""L""</p></div>
            </center>
            <p style=""text-align:center"">Which clip sounds more like someone who was born in Boston?</p>","s","","","","","","","","11","F4_01","M1_02","F4","M1","female","male","Probably right before I turn six.","It's a really nice place to live.","short","4","1","",""
"","","","","","audio-keyboard-response","232","785714","0.0-232.0","","","","","","","","","","","","null","../audio/F5_01.WAV","null","F5_01","F5","female","1","1.144573","3.495","He worked very hard.","","","","","","","","","","","","","",""
"","","","","","audio-keyboard-response","233","787276","0.0-233.0","","","","","","","","","","","","null","../audio/M5_02.WAV","s","M5_02","M5","male","2","1.560854","3.204","In December, it was cold.","","","","","","","","","","","","","",""
"","","","","","html-keyboard-response","234","789281","0.0-234.0","","","","","","","","","","","","276","
            <center>
                <div id=""clip1"" class=""visual"">Clip 1<p>Press ""S""</p></div>
                <div id=""clip2"" class=""visual"">Clip 2<p>Press ""L""</p></div>
            </center>
            <p style=""text-align:center"">Which clip sounds more like someone who was born in Boston?</p>","s","","","","","","","","12","F5_01","M5_02","F5","M5","female","male","He worked very hard.","In December, it was cold.","short","4","1","",""
"","","","","","audio-keyboard-response","235","794252","0.0-235.0","","","","","","","","","","","","null","../audio/F1_02.WAV","null","F1_02","F1","female","1","2.456333","2.442","I end up going to high school.","","","","","","","","","","","","","",""
"","","","","","audio-keyboard-response","236","797178","0.0-236.0","","","","","","","","","","","","null","../audio/F4_02.WAV","s","F4_02","F4","female","2","2.916635","2.058","Yeah, a little bit, like elementary school.","","","","","","","","","","","","","",""
"","","","","","html-keyboard-response","237","799185","0.0-237.0","","","","","","","","","","","","251","
            <center>
                <div id=""clip1"" class=""visual"">Clip 1<p>Press ""S""</p></div>
                <div id=""clip2"" class=""visual"">Clip 2<p>Press ""L""</p></div>
            </center>
            <p style=""text-align:center"">Which clip sounds more like someone who was born in Boston?</p>","s","","","","","","","","13","F1_02","F4_02","F1","F4","female","female","I end up going to high school.","Yeah, a little bit, like elementary school.","short","4","1","",""
"","","","","","audio-keyboard-response","238","804606","0.0-238.0","","","","","","","","","","","","null","../audio/F2_02.WAV","null","F2_02","F2","female","1","2.902938","4.134","They buy a whole pig and then they eat their way through it.","","","","","","","","","","","","","",""
"","","","","","audio-keyboard-response","239","805649","0.0-239.0","","","","","","","","","","","","null","../audio/M2_02.WAV","s","M2_02","M2","male","2","1.039885","3.846","So that was great.","","","","","","","","","","","","","",""
"","","","","","html-keyboard-response","240","807651","0.0-240.0","","","","","","","","","","","","24","
            <center>
                <div id=""clip1"" class=""visual"">Clip 1<p>Press ""S""</p></div>
                <div id=""clip2"" class=""visual"">Clip 2<p>Press ""L""</p></div>
            </center>
            <p style=""text-align:center"">Which clip sounds more like someone who was born in Boston?</p>","s","","","","","","","","14","F2_02","M2_02","F2","M2","female","male","They buy a whole pig and then they eat their way through it.","So that was great.","short","4","1","",""
"","","","","","audio-keyboard-response","241","812168","0.0-241.0","","","","","","","","","","","","null","../audio/M5_01.WAV","null","M5_01","M5","male","1","2.002865","2.994","All of us were very young, so...","","","","","","","","","","","","","",""
"","","","","","audio-keyboard-response","242","813829","0.0-242.0","","","","","","","","","","","","null","../audio/M3_01.WAV","s","M3_01","M3","male","2","1.659469","2.411","To further my education.","","","","","","","","","","","","","",""
"","","","","","html-keyboard-response","243","815831","0.0-243.0","","","","","","","","","","","","69","
            <center>
                <div id=""clip1"" class=""visual"">Clip 1<p>Press ""S""</p></div>
                <div id=""clip2"" class=""visual"">Clip 2<p>Press ""L""</p></div>
            </center>
            <p style=""text-align:center"">Which clip sounds more like someone who was born in Boston?</p>","s","","","","","","","","15","M5_01","M3_01","M5","M3","male","male","All of us were very young, so...","To further my education.","short","4","1","",""
"","","","","","audio-keyboard-response","244","821068","0.0-244.0","","","","","","","","","","","","null","../audio/F1_01.WAV","null","F1_01","F1","female","1","2.72926","1.832","Because of the limited space.","","","","","","","","","","","","","",""
"","","","","","audio-keyboard-response","245","823188","0.0-245.0","","","","","","","","","","","","null","../audio/M4_01.WAV","s","M4_01","M4","male","2","2.112052","2.841","The main source is from class.","","","","","","","","","","","","","",""
"","","","","","html-keyboard-response","246","825201","0.0-246.0","","","","","","","","","","","","264","
            <center>
                <div id=""clip1"" class=""visual"">Clip 1<p>Press ""S""</p></div>
                <div id=""clip2"" class=""visual"">Clip 2<p>Press ""L""</p></div>
            </center>
            <p style=""text-align:center"">Which clip sounds more like someone who was born in Boston?</p>","s","","","","","","","","16","F1_01","M4_01","F1","M4","female","male","Because of the limited space.","The main source is from class.","short","4","1","",""
"","","","","","audio-keyboard-response","247","829436","0.0-247.0","","","","","","","","","","","","null","../audio/M3_02.WAV","null","M3_02","M3","male","1","1.70975","2.924","And then on Sunday morning","","","","","","","","","","","","","",""
"","","","","","audio-keyboard-response","248","831451","0.0-248.0","","","","","","","","","","","","null","../audio/F5_02.WAV","l","F5_02","F5","female","2","2.006958","2.491","We sort of like stay together.","","","","","","","","","","","","","",""
"","","","","","html-keyboard-response","249","833466","0.0-249.0","","","","","","","","","","","","75","
            <center>
                <div id=""clip1"" class=""visual"">Clip 1<p>Press ""S""</p></div>
                <div id=""clip2"" class=""visual"">Clip 2<p>Press ""L""</p></div>
            </center>
            <p style=""text-align:center"">Which clip sounds more like someone who was born in Boston?</p>","l","","","","","","","","17","M3_02","F5_02","M3","F5","male","female","And then on Sunday morning","We sort of like stay together.","short","4","1","",""
"","","","","","audio-keyboard-response","250","840419","0.0-250.0","","","","","","","","","","","","null","../audio/F3_02.WAV","null","F3_02","F3","female","1","4.438833","2.253","So it wasn't residential on both sides of the street...","","","","","","","","","","","","","",""
"","","","","","audio-keyboard-response","251","843629","0.0-251.0","","","","","","","","","","","","null","../audio/F2_01.WAV","l","F2_01","F2","female","2","3.200677","1.250","It's head-to-tail restaurant.","","","","","","","","","","","","","",""
"","","","","","html-keyboard-response","252","845637","0.0-252.0","","","","","","","","","","","","180","
            <center>
                <div id=""clip1"" class=""visual"">Clip 1<p>Press ""S""</p></div>
                <div id=""clip2"" class=""visual"">Clip 2<p>Press ""L""</p></div>
            </center>
            <p style=""text-align:center"">Which clip sounds more like someone who was born in Boston?</p>","l","","","","","","","","18","F3_02","F2_01","F3","F2","female","female","So it wasn't residential on both sides of the street...","It's head-to-tail restaurant.","short","4","1","",""
