"success","timeout","failed_images","failed_audio","failed_video","trial_type","trial_index","time_elapsed","internal_node_id","width","height","webaudio","browser","browser_version","mobile","os","fullscreen","vsync_rate","webcam","microphone","rt","stimulus","response","ID","talker","gender","order","duration","speech_rate","transcript","Order","clip1_id","clip2_id","clip1_speaker","clip2_speaker","clip1_gender","clip2_gender","clip1_transcript","clip2_transcript","block_type","block_number","counterbalance_id","accuracy","question_order","result"
"true","false","[]","[]","[]","preload","0","426","0.0-0.0","","","","","","","","","","","","","","","","","","","","","","","","","","","","","","","","","","","",""
"true","false","[]","[]","[]","preload","1","1727","0.0-1.0","","","","","","","","","","","","","","","","","","","","","","","","","","","","","","","","","","","",""
"","","","","","browser-check","2","2991","0.0-2.0","1403","863","true","chrome","137.0.0","false","Mac OS","true","59.99","true","true","","","","","","","","","","","","","","","","","","","","","","","","",""
"","","","","","html-button-response","3","42449","0.0-3.0","","","","","","","","","","","","39204","
        <div class=""text"" id=""instruction"" >
            <img src=""../images/stanford_logo.png"" alt=""stanford logo"" width=""180"" height=""80"">
            <p><b>Only complete this study if you are a Massachussets resident who is 18 years old or older.</b></p>
            <p>Please share this link with other people you know who live in the area, but <u>do not participate in this study more than once</u>.
            <BR>You will not be compensated more than once.</p> 
            <p>In this experiment, you will be listening to pairs of audio clips.</p>
            <p>Each pair of audio clips will be played once in consecutive order. Your task is to decide which one of the clips sounds like the speaker was born in Boston.</p>
            <p>Please ensure that you use earphones or headphones for the duration of this experiment.</p>
            <p>This experiment should be completed on a <b><u>desktop or laptop</u></b> using the <b><u>Google Chrome browser</u></b>.</p>
            <p>The experiment will take approximately 20 minutes. You will be compensated as advertised on Prolific for your time.</p>
        </div>
      ","0","","","","","","","","","","","","","","","","","","","","","",""
"","","","","","html-button-response","4","60956","0.0-4.0","","","","","","","","","","","","18252","<p><strong>Thank you for your participation in this study. Please read the protocol below.</strong></p>
        <p>Protocol Director: Robert Hawkins</P
        <p>Protocol Title: Communication and social cognition in natural audiovisual contexts IRB# 77226</p>
        <p>DESCRIPTION: You are invited to participate in a research study about language and communication. 
        The purpose of the research is to understand how you interact and communicate with other people in naturalistic settings as a fluent English speaker. 
        This research will be conducted through the Prolific platform, including participants from the US, UK, and Canada. 
        If you decide to participate in this research, you will play a communication game in a group with one or more partners.</p>
        <p>TIME INVOLVEMENT: The task will last the amount of time advertised on Prolific. You are free to withdraw from the study at any time.</p>
        <p>RISKS AND BENEFITS: You may become frustrated if your partner gets distracted, or experience discomfort if other participants in your group 
        send text that is inappropriate for the task. We ask you to please be respectful of other participants you might be
        interacting with to mitigate these risks. You may also experience discomfort when being asked to discuss or challenge emotionally salient political beliefs. Study data will be
        stored securely, in compliance with Stanford University standards, minimizing the risk of confidentiality breach. This study advances our scientific understanding of how people
        communication and collaborate in naturalistic settings. This study may lead to further
        insights about what can go wrong in teamwork, suggest potential interventions to
        overcome these barriers, and help to develop assistive technologies that collaborate with
        human partners. We cannot and do not guarantee or promise that you will receive any benefits from this study.</p>
        <p>PAYMENTS: You will receive payment in the amount advertised on Prolific. If you do not complete this study, you will receive prorated payment based on the time that you have
        spent. Additionally, you may be eligible for bonus payments as described in the instructions.</p>
        <p> PARTICIPANTS RIGHTS: If you have read this form and have decided to participate in this project, please understand your participation is voluntary and you have the right
        to withdraw your consent or discontinue participation at any time without penalty or loss of benefits to which you are otherwise entitled. The alternative
        is not to participate. You have the right to refuse to answer particular questions. The results of this research study may be presented at scientific or professional meetings or
        published in scientific journals. Your individual privacy will be maintained in all published and written data resulting from the study. In accordance with scientific norms, the data
        from this study may be used or shared with other researchers for future research (after removing personally identifying information) without additional consent from you.</p>
        <p>CONTACT INFORMATION: Questions: If you have any questions, concerns or complaints about this research, its procedures, risks and benefits, contact the Protocol Director, Robert Hawkins (rdhawkins@stanford.edu, 217-549-6923).</p>
        <p>Independent Contact: If you are not satisfied with how this study is being conducted, or if you have any concerns, complaints, or general questions about the research or your rights as a participant, please contact the Stanford Institutional Review Board (IRB) to
        speak to someone independent of the research team at 650-723-2480 or toll free at 1-866-680-2906, or email at irbnonmed@stanford.edu. You can also write to the Stanford IRB, Stanford University, 1705 El Camino Real, Palo Alto, CA 94306. Please save or print a
        copy of this page for your records.</p>
        <p>If you agree to participate in this research, press the <strong>CONTINUE</strong> button to begin.</p> 
      ","0","","","","","","","","","","","","","","","","","","","","","",""
"","","","","","cloze","5","82622","0.0-5.0","","","","","","","","","","","","","","[""friends""]","","","","","","","","","","","","","","","","","","","","","",""
"","","","","","html-button-response","6","97935","0.0-6.0","","","","","","","","","","","","15059","
    <center>
      <div class=""instruction-box"">
        <p>You will now begin the practice trials.</p>
        <p>In each trial, two audio clips will play one after another. You will hear a variety of sentences and phrases spoken by different talkers.</p>
        <p>Each audio clip will only be played once and you will not be able to replay them.</p>
        <p><strong>Your task is to decide which clip sounds more like the speaker was born in Boston.</strong></p>
        <p><strong>These clips come from a range of different people so they might not all sound like your typical Bostonian, but just make your best guess as quickly as possible.</strong></p>        
  </center>
        ","0","","","","","","","","","","","","","","","","","","","","","",""
"","","","","","html-button-response","7","128452","0.0-7.0","","","","","","","","","","","","30264","
    <center>   
      <div class=""instruction-box"">   
        <p>Please place your left index finger on the ""S"" key and your right index finger on the ""L"" key.</p>
        <p><img src=""../procedures/keyboard.png"" width=""500"" style=""margin-top:-10px""></p>
        <p>If the <strong>first clip</strong> sounds more like someone who was born in Boston, please <strong>press S</strong>.</p>
        <p>If the <strong>second clip</strong> sounds more like someone who was born in Boston, please <strong>press L</strong>.</p>
        <p><b>Respond as quickly as possible when both clips have finished playing.</b></p>
        <p>This is a timed task. If you do not respond in time, the next question will appear automatically.</p>
        <p><b>Please answer as quickly and accurately as possible.</b></p>
    </center>
        ","0","","","","","","","","","","","","","","","","","","","","","",""
"","","","","","audio-keyboard-response","8","132710","0.0-8.0","","","","","","","","","","","","null","../practice/trial1_clip1.WAV","null","practice_trial1_clip1","practice_speaker","unknown","1","4","unknown","practice_transcript","","","","","","","","","","","","","","",""
"","","","","","audio-keyboard-response","9","136713","0.0-9.0","","","","","","","","","","","","null","../practice/trial1_clip2.WAV","s","practice_trial1_clip2","practice_speaker","unknown","2","4","unknown","practice_transcript","","","","","","","","","","","","","","",""
"","","","","","html-keyboard-response","10","138718","0.0-10.0","","","","","","","","","","","","1150","
        <center>
            <div id=""clip1"" class=""visual"">Clip 1<p>Press ""S""</p></div>
            <div id=""clip2"" class=""visual"">Clip 2<p>Press ""L""</p></div>
        </center>
        <p style=""text-align:center"">Which clip sounds more like someone who was born in Boston?</p>","s","","","","","","","","1","practice_trial1_clip1","practice_trial1_clip2","","","","","","","","","","","",""
"","","","","","audio-keyboard-response","11","144222","0.0-11.0","","","","","","","","","","","","null","../practice/trial2_clip1.WAV","null","practice_trial2_clip1","practice_speaker","unknown","1","4","unknown","practice_transcript","","","","","","","","","","","","","","",""
"","","","","","audio-keyboard-response","12","148226","0.0-12.0","","","","","","","","","","","","null","../practice/trial2_clip2.WAV","null","practice_trial2_clip2","practice_speaker","unknown","2","4","unknown","practice_transcript","","","","","","","","","","","","","","",""
"","","","","","html-keyboard-response","13","150229","0.0-13.0","","","","","","","","","","","","null","
        <center>
            <div id=""clip1"" class=""visual"">Clip 1<p>Press ""S""</p></div>
            <div id=""clip2"" class=""visual"">Clip 2<p>Press ""L""</p></div>
        </center>
        <p style=""text-align:center"">Which clip sounds more like someone who was born in Boston?</p>","null","","","","","","","","2","practice_trial2_clip1","practice_trial2_clip2","","","","","","","","","","","",""
"","","","","","audio-keyboard-response","14","155735","0.0-14.0","","","","","","","","","","","","null","../practice/trial3_clip1.WAV","null","practice_trial3_clip1","practice_speaker","unknown","1","4","unknown","practice_transcript","","","","","","","","","","","","","","",""
"","","","","","audio-keyboard-response","15","159737","0.0-15.0","","","","","","","","","","","","null","../practice/trial3_clip2.WAV","s","practice_trial3_clip2","practice_speaker","unknown","2","4","unknown","practice_transcript","","","","","","","","","","","","","","",""
"","","","","","html-keyboard-response","16","161740","0.0-16.0","","","","","","","","","","","","122","
        <center>
            <div id=""clip1"" class=""visual"">Clip 1<p>Press ""S""</p></div>
            <div id=""clip2"" class=""visual"">Clip 2<p>Press ""L""</p></div>
        </center>
        <p style=""text-align:center"">Which clip sounds more like someone who was born in Boston?</p>","s","","","","","","","","3","practice_trial3_clip1","practice_trial3_clip2","","","","","","","","","","","",""
"","","","","","html-button-response","17","183581","0.0-17.0","","","","","","","","","","","","20338","
    <center>
      <div class=""instruction-box"">
        <p>You will now begin the experiment.</p>
        <p>In each trial, two audio clips will play one after another. You will hear a variety of sentences and phrases spoken by different talkers.</p>
        <p>Each audio clip will only be played once and you will not be able to replay them.</p>
        <p><strong>Your task is to decide which clip sounds more like someone who was born in Boston.</strong></p>
        <p><strong>These clips come from a range of different people so they might not all sound like your typical Bostonian, but please do your best to respond as quickly as possible.</strong></p>
    </center>
        ","0","","","","","","","","","","","","","","","","","","","","","",""
"","","","","","html-button-response","18","187619","0.0-18.0","","","","","","","","","","","","3784","
    <center>
      <div class=""instruction-box"">
        <p>Please place your left index finger on the ""S"" key and your right index finger on the ""L"" key.</p>
        <p><img src=""../procedures/keyboard.png"" width=""500"" style=""margin-top:-10px""></p>
        <p>If the <strong>first clip</strong> sounds more like someone who was born in Boston, please <strong>press S</strong>.</p>
        <p>If the <strong>second clip</strong> sounds more like someone who was born in Boston, please <strong>press L</strong>.</p>
        <p><b>Respond as quickly as possible when both clips have finished playing.</b></p>
        <p>This is a timed task. If you do not respond in time, the next question will appear automatically.</p>
        <p><b>Please answer as quickly and accurately as possible.</b></p>
    </center>
        ","0","","","","","","","","","","","","","","","","","","","","","",""
"","","","","","audio-keyboard-response","19","191399","0.0-19.0","","","","","","","","","","","","null","../audio/M2_03.WAV","null","M2_03","M2","male","1","3.026990","2.643","The airport is basically a one-story building.","","","","","","","","","","","","","","",""
"","","","","","audio-keyboard-response","20","194577","0.0-20.0","","","","","","","","","","","","null","../audio/F1_04.WAV","l","F1_04","F1","female","2","3.175875","3.149","but majority of the time people offer to pick me up.","","","","","","","","","","","","","","",""
"","","","","","html-keyboard-response","21","196580","0.0-21.0","","","","","","","","","","","","345","
            <center>
                <div id=""clip1"" class=""visual"">Clip 1<p>Press ""S""</p></div>
                <div id=""clip2"" class=""visual"">Clip 2<p>Press ""L""</p></div>
            </center>
            <p style=""text-align:center"">Which clip sounds more like someone who was born in Boston?</p>","l","","","","","","","","1","M2_03","F1_04","M2","F1","male","female","The airport is basically a one-story building.","but majority of the time people offer to pick me up.","long","1","1","","",""
"","","","","","audio-keyboard-response","22","202960","0.0-22.0","","","","","","","","","","","","null","../audio/M5_03.WAV","null","M5_03","M5","male","1","4.375990","1.829","So we start transporting, moving kids outside of the neighborhood.","","","","","","","","","","","","","","",""
"","","","","","audio-keyboard-response","23","205099","0.0-23.0","","","","","","","","","","","","null","../audio/M4_03.WAV","s","M4_03","M4","male","2","2.137188","1.872","they didn't really respond","","","","","","","","","","","","","","",""
"","","","","","html-keyboard-response","24","207102","0.0-24.0","","","","","","","","","","","","368","
            <center>
                <div id=""clip1"" class=""visual"">Clip 1<p>Press ""S""</p></div>
                <div id=""clip2"" class=""visual"">Clip 2<p>Press ""L""</p></div>
            </center>
            <p style=""text-align:center"">Which clip sounds more like someone who was born in Boston?</p>","s","","","","","","","","2","M5_03","M4_03","M5","M4","male","male","So we start transporting, moving kids outside of the neighborhood.","they didn't really respond","long","1","1","","",""
"","","","","","audio-keyboard-response","25","210614","0.0-25.0","","","","","","","","","","","","null","../audio/M1_04.WAV","null","M1_04","M1","male","1","1.508312","4.640","It's a really nice place to live.","","","","","","","","","","","","","","",""
"","","","","","audio-keyboard-response","26","213575","0.0-26.0","","","","","","","","","","","","null","../audio/F3_03.WAV","l","F3_03","F3","female","2","2.959219","2.028","So initially my father said no.","","","","","","","","","","","","","","",""
"","","","","","html-keyboard-response","27","215579","0.0-27.0","","","","","","","","","","","","554","
            <center>
                <div id=""clip1"" class=""visual"">Clip 1<p>Press ""S""</p></div>
                <div id=""clip2"" class=""visual"">Clip 2<p>Press ""L""</p></div>
            </center>
            <p style=""text-align:center"">Which clip sounds more like someone who was born in Boston?</p>","l","","","","","","","","3","M1_04","F3_03","M1","F3","male","female","It's a really nice place to live.","So initially my father said no.","long","1","1","","",""
"","","","","","audio-keyboard-response","28","221253","0.0-28.0","","","","","","","","","","","","null","../audio/F4_03.WAV","null","F4_03","F4","female","1","3.670938","2.724","Yeah, it was an apartment building. It was like a one-bedroom","","","","","","","","","","","","","","",""
"","","","","","audio-keyboard-response","29","222816","0.0-29.0","","","","","","","","","","","","null","../audio/M5_04.WAV","s","M5_04","M5","male","2","1.560854","3.204","and the summer was cold.","","","","","","","","","","","","","","",""
"","","","","","html-keyboard-response","30","224819","0.0-30.0","","","","","","","","","","","","584","
            <center>
                <div id=""clip1"" class=""visual"">Clip 1<p>Press ""S""</p></div>
                <div id=""clip2"" class=""visual"">Clip 2<p>Press ""L""</p></div>
            </center>
            <p style=""text-align:center"">Which clip sounds more like someone who was born in Boston?</p>","s","","","","","","","","4","F4_03","M5_04","F4","M5","female","male","Yeah, it was an apartment building. It was like a one-bedroom","and the summer was cold.","long","1","1","","",""
"","","","","","audio-keyboard-response","31","228900","0.0-31.0","","","","","","","","","","","","null","../audio/F2_03.WAV","null","F2_03","F2","female","1","2.078781","4.811","But it was illegal at that time, and I didn't know that.","","","","","","","","","","","","","","",""
"","","","","","audio-keyboard-response","32","231360","0.0-32.0","","","","","","","","","","","","null","../audio/F1_03.WAV","s","F1_03","F1","female","2","2.456333","2.442","I end up going to high school.","","","","","","","","","","","","","","",""
"","","","","","html-keyboard-response","33","233363","0.0-33.0","","","","","","","","","","","","861","
            <center>
                <div id=""clip1"" class=""visual"">Clip 1<p>Press ""S""</p></div>
                <div id=""clip2"" class=""visual"">Clip 2<p>Press ""L""</p></div>
            </center>
            <p style=""text-align:center"">Which clip sounds more like someone who was born in Boston?</p>","s","","","","","","","","5","F2_03","F1_03","F2","F1","female","female","But it was illegal at that time, and I didn't know that.","I end up going to high school.","long","1","1","","",""
"","","","","","audio-keyboard-response","34","237549","0.0-34.0","","","","","","","","","","","","null","../audio/M2_04.WAV","null","M2_04","M2","male","1","2.180729","2.751","People just focus on making money.","","","","","","","","","","","","","","",""
"","","","","","audio-keyboard-response","35","239031","0.0-35.0","","","","","","","","","","","","null","../audio/M1_03.WAV","l","M1_03","M1","male","2","1.480896","2.701","you kind of get spoiled.","","","","","","","","","","","","","","",""
"","","","","","html-keyboard-response","36","241034","0.0-36.0","","","","","","","","","","","","1042","
            <center>
                <div id=""clip1"" class=""visual"">Clip 1<p>Press ""S""</p></div>
                <div id=""clip2"" class=""visual"">Clip 2<p>Press ""L""</p></div>
            </center>
            <p style=""text-align:center"">Which clip sounds more like someone who was born in Boston?</p>","l","","","","","","","","6","M2_04","M1_03","M2","M1","male","male","People just focus on making money.","you kind of get spoiled.","long","1","1","","",""
"","","","","","audio-keyboard-response","37","246417","0.0-37.0","","","","","","","","","","","","null","../audio/M3_03.WAV","null","M3_03","M3","male","1","3.378094","3.553","Probably you heard on the radio or on the news, they are downsizing.","","","","","","","","","","","","","","",""
"","","","","","audio-keyboard-response","38","249582","0.0-38.0","","","","","","","","","","","","null","../audio/F5_03.WAV","s","F5_03","F5","female","2","3.162094","2.530","It was a totally new experience to me.","","","","","","","","","","","","","","",""
"","","","","","html-keyboard-response","39","251585","0.0-39.0","","","","","","","","","","","","684","
            <center>
                <div id=""clip1"" class=""visual"">Clip 1<p>Press ""S""</p></div>
                <div id=""clip2"" class=""visual"">Clip 2<p>Press ""L""</p></div>
            </center>
            <p style=""text-align:center"">Which clip sounds more like someone who was born in Boston?</p>","s","","","","","","","","7","M3_03","F5_03","M3","F5","male","female","Probably you heard on the radio or on the news, they are downsizing.","It was a totally new experience to me.","long","1","1","","",""
"","","","","","audio-keyboard-response","40","257705","0.0-40.0","","","","","","","","","","","","null","../audio/F3_04.WAV","null","F3_04","F3","female","1","4.115500","2.430","they would also know just because it's easier to identify families.","","","","","","","","","","","","","","",""
"","","","","","audio-keyboard-response","41","261696","0.0-41.0","","","","","","","","","","","","null","../audio/F4_04.WAV","s","F4_04","F4","female","2","3.988719","3.509","So when I got in, I knew that I can take the train, it was easy to commute.","","","","","","","","","","","","","","",""
"","","","","","html-keyboard-response","42","263698","0.0-42.0","","","","","","","","","","","","755","
            <center>
                <div id=""clip1"" class=""visual"">Clip 1<p>Press ""S""</p></div>
                <div id=""clip2"" class=""visual"">Clip 2<p>Press ""L""</p></div>
            </center>
            <p style=""text-align:center"">Which clip sounds more like someone who was born in Boston?</p>","s","","","","","","","","8","F3_04","F4_04","F3","F4","female","female","they would also know just because it's easier to identify families.","So when I got in, I knew that I can take the train, it was easy to commute.","long","1","1","","",""
"","","","","","audio-keyboard-response","43","267488","0.0-43.0","","","","","","","","","","","","null","../audio/M4_04.WAV","null","M4_04","M4","male","1","1.785187","3.361","I'm still struggling to be honest.","","","","","","","","","","","","","","",""
"","","","","","audio-keyboard-response","44","270393","0.0-44.0","","","","","","","","","","","","null","../audio/F2_04.WAV","l","F2_04","F2","female","2","2.902938","4.134","They buy a whole pig and then they eat their way through it.","","","","","","","","","","","","","","",""
"","","","","","html-keyboard-response","45","272396","0.0-45.0","","","","","","","","","","","","1473","
            <center>
                <div id=""clip1"" class=""visual"">Clip 1<p>Press ""S""</p></div>
                <div id=""clip2"" class=""visual"">Clip 2<p>Press ""L""</p></div>
            </center>
            <p style=""text-align:center"">Which clip sounds more like someone who was born in Boston?</p>","l","","","","","","","","9","M4_04","F2_04","M4","F2","male","female","I'm still struggling to be honest.","They buy a whole pig and then they eat their way through it.","long","1","1","","",""
"","","","","","audio-keyboard-response","46","276965","0.0-46.0","","","","","","","","","","","","null","../audio/M3_04.WAV","null","M3_04","M3","male","1","2.564635","3.508","You had to learn about what they're talking about.","","","","","","","","","","","","","","",""
"","","","","","audio-keyboard-response","47","280372","0.0-47.0","","","","","","","","","","","","null","../audio/F5_04.WAV","l","F5_04","F5","female","2","3.404396","2.056","After half a year, I start full-time.","","","","","","","","","","","","","","",""
"","","","","","html-keyboard-response","48","282375","0.0-48.0","","","","","","","","","","","","540","
            <center>
                <div id=""clip1"" class=""visual"">Clip 1<p>Press ""S""</p></div>
                <div id=""clip2"" class=""visual"">Clip 2<p>Press ""L""</p></div>
            </center>
            <p style=""text-align:center"">Which clip sounds more like someone who was born in Boston?</p>","l","","","","","","","","10","M3_04","F5_04","M3","F5","male","female","You had to learn about what they're talking about.","After half a year, I start full-time.","long","1","1","","",""
"","","","","","audio-keyboard-response","49","288049","0.0-49.0","","","","","","","","","","","","null","../audio/F4_03.WAV","null","F4_03","F4","female","1","3.670938","2.724","Yeah, it was an apartment building. It was like a one-bedroom","","","","","","","","","","","","","","",""
"","","","","","audio-keyboard-response","50","292166","0.0-50.0","","","","","","","","","","","","null","../audio/F3_04.WAV","l","F3_04","F3","female","2","4.115500","2.430","they would also know just because it's easier to identify families.","","","","","","","","","","","","","","",""
"","","","","","html-keyboard-response","51","294169","0.0-51.0","","","","","","","","","","","","737","
            <center>
                <div id=""clip1"" class=""visual"">Clip 1<p>Press ""S""</p></div>
                <div id=""clip2"" class=""visual"">Clip 2<p>Press ""L""</p></div>
            </center>
            <p style=""text-align:center"">Which clip sounds more like someone who was born in Boston?</p>","l","","","","","","","","11","F4_03","F3_04","F4","F3","female","female","Yeah, it was an apartment building. It was like a one-bedroom","they would also know just because it's easier to identify families.","long","1","1","","",""
"","","","","","audio-keyboard-response","52","299132","0.0-52.0","","","","","","","","","","","","null","../audio/F3_03.WAV","null","F3_03","F3","female","1","2.959219","2.028","So initially my father said no.","","","","","","","","","","","","","","",""
"","","","","","audio-keyboard-response","53","301271","0.0-53.0","","","","","","","","","","","","null","../audio/M4_03.WAV","s","M4_03","M4","male","2","2.137188","1.872","they didn't really respond","","","","","","","","","","","","","","",""
"","","","","","html-keyboard-response","54","303273","0.0-54.0","","","","","","","","","","","","744","
            <center>
                <div id=""clip1"" class=""visual"">Clip 1<p>Press ""S""</p></div>
                <div id=""clip2"" class=""visual"">Clip 2<p>Press ""L""</p></div>
            </center>
            <p style=""text-align:center"">Which clip sounds more like someone who was born in Boston?</p>","s","","","","","","","","12","F3_03","M4_03","F3","M4","female","male","So initially my father said no.","they didn't really respond","long","1","1","","",""
"","","","","","audio-keyboard-response","55","308180","0.0-55.0","","","","","","","","","","","","null","../audio/F2_04.WAV","null","F2_04","F2","female","1","2.902938","4.134","They buy a whole pig and then they eat their way through it.","","","","","","","","","","","","","","",""
"","","","","","audio-keyboard-response","56","311358","0.0-56.0","","","","","","","","","","","","null","../audio/F1_04.WAV","l","F1_04","F1","female","2","3.175875","3.149","but majority of the time people offer to pick me up.","","","","","","","","","","","","","","",""
"","","","","","html-keyboard-response","57","313362","0.0-57.0","","","","","","","","","","","","536","
            <center>
                <div id=""clip1"" class=""visual"">Clip 1<p>Press ""S""</p></div>
                <div id=""clip2"" class=""visual"">Clip 2<p>Press ""L""</p></div>
            </center>
            <p style=""text-align:center"">Which clip sounds more like someone who was born in Boston?</p>","l","","","","","","","","13","F2_04","F1_04","F2","F1","female","female","They buy a whole pig and then they eat their way through it.","but majority of the time people offer to pick me up.","long","1","1","","",""
"","","","","","audio-keyboard-response","58","316846","0.0-58.0","","","","","","","","","","","","null","../audio/M1_03.WAV","null","M1_03","M1","male","1","1.480896","2.701","you kind of get spoiled.","","","","","","","","","","","","","","",""
"","","","","","audio-keyboard-response","59","319305","0.0-59.0","","","","","","","","","","","","null","../audio/F1_03.WAV","s","F1_03","F1","female","2","2.456333","2.442","I end up going to high school.","","","","","","","","","","","","","","",""
"","","","","","html-keyboard-response","60","321308","0.0-60.0","","","","","","","","","","","","738","
            <center>
                <div id=""clip1"" class=""visual"">Clip 1<p>Press ""S""</p></div>
                <div id=""clip2"" class=""visual"">Clip 2<p>Press ""L""</p></div>
            </center>
            <p style=""text-align:center"">Which clip sounds more like someone who was born in Boston?</p>","s","","","","","","","","14","M1_03","F1_03","M1","F1","male","female","you kind of get spoiled.","I end up going to high school.","long","1","1","","",""
"","","","","","audio-keyboard-response","61","327301","0.0-61.0","","","","","","","","","","","","null","../audio/F4_04.WAV","null","F4_04","F4","female","1","3.988719","3.509","So when I got in, I knew that I can take the train, it was easy to commute.","","","","","","","","","","","","","","",""
"","","","","","audio-keyboard-response","62","328811","0.0-62.0","","","","","","","","","","","","null","../audio/M1_04.WAV","s","M1_04","M1","male","2","1.508312","4.640","It's a really nice place to live.","","","","","","","","","","","","","","",""
"","","","","","html-keyboard-response","63","330814","0.0-63.0","","","","","","","","","","","","870","
            <center>
                <div id=""clip1"" class=""visual"">Clip 1<p>Press ""S""</p></div>
                <div id=""clip2"" class=""visual"">Clip 2<p>Press ""L""</p></div>
            </center>
            <p style=""text-align:center"">Which clip sounds more like someone who was born in Boston?</p>","s","","","","","","","","15","F4_04","M1_04","F4","M1","female","male","So when I got in, I knew that I can take the train, it was easy to commute.","It's a really nice place to live.","long","1","1","","",""
"","","","","","audio-keyboard-response","64","337194","0.0-64.0","","","","","","","","","","","","null","../audio/M5_03.WAV","null","M5_03","M5","male","1","4.375990","1.829","So we start transporting, moving kids outside of the neighborhood.","","","","","","","","","","","","","","",""
"","","","","","audio-keyboard-response","65","339376","0.0-65.0","","","","","","","","","","","","null","../audio/M2_04.WAV","s","M2_04","M2","male","2","2.180729","2.751","People just focus on making money.","","","","","","","","","","","","","","",""
"","","","","","html-keyboard-response","66","341379","0.0-66.0","","","","","","","","","","","","485","
            <center>
                <div id=""clip1"" class=""visual"">Clip 1<p>Press ""S""</p></div>
                <div id=""clip2"" class=""visual"">Clip 2<p>Press ""L""</p></div>
            </center>
            <p style=""text-align:center"">Which clip sounds more like someone who was born in Boston?</p>","s","","","","","","","","16","M5_03","M2_04","M5","M2","male","male","So we start transporting, moving kids outside of the neighborhood.","People just focus on making money.","long","1","1","","",""
"","","","","","audio-keyboard-response","67","346546","0.0-67.0","","","","","","","","","","","","null","../audio/F5_03.WAV","null","F5_03","F5","female","1","3.162094","2.530","It was a totally new experience to me.","","","","","","","","","","","","","","",""
"","","","","","audio-keyboard-response","68","348108","0.0-68.0","","","","","","","","","","","","null","../audio/M5_04.WAV","l","M5_04","M5","male","2","1.560854","3.204","and the summer was cold.","","","","","","","","","","","","","","",""
"","","","","","html-keyboard-response","69","350110","0.0-69.0","","","","","","","","","","","","597","
            <center>
                <div id=""clip1"" class=""visual"">Clip 1<p>Press ""S""</p></div>
                <div id=""clip2"" class=""visual"">Clip 2<p>Press ""L""</p></div>
            </center>
            <p style=""text-align:center"">Which clip sounds more like someone who was born in Boston?</p>","l","","","","","","","","17","F5_03","M5_04","F5","M5","female","male","It was a totally new experience to me.","and the summer was cold.","long","1","1","","",""
"","","","","","audio-keyboard-response","70","355519","0.0-70.0","","","","","","","","","","","","null","../audio/F5_04.WAV","null","F5_04","F5","female","1","3.404396","2.056","After half a year, I start full-time.","","","","","","","","","","","","","","",""
"","","","","","audio-keyboard-response","71","358548","0.0-71.0","","","","","","","","","","","","null","../audio/M2_03.WAV","s","M2_03","M2","male","2","3.026990","2.643","The airport is basically a one-story building.","","","","","","","","","","","","","","",""
"","","","","","html-keyboard-response","72","360551","0.0-72.0","","","","","","","","","","","","687","
            <center>
                <div id=""clip1"" class=""visual"">Clip 1<p>Press ""S""</p></div>
                <div id=""clip2"" class=""visual"">Clip 2<p>Press ""L""</p></div>
            </center>
            <p style=""text-align:center"">Which clip sounds more like someone who was born in Boston?</p>","s","","","","","","","","18","F5_04","M2_03","F5","M2","female","male","After half a year, I start full-time.","The airport is basically a one-story building.","long","1","1","","",""
"","","","","","audio-keyboard-response","73","364340","0.0-73.0","","","","","","","","","","","","null","../audio/M4_04.WAV","null","M4_04","M4","male","1","1.785187","3.361","I'm still struggling to be honest.","","","","","","","","","","","","","","",""
"","","","","","audio-keyboard-response","74","367721","0.0-74.0","","","","","","","","","","","","null","../audio/M3_03.WAV","l","M3_03","M3","male","2","3.378094","3.553","Probably you heard on the radio or on the news, they are downsizing.","","","","","","","","","","","","","","",""
"","","","","","html-keyboard-response","75","369724","0.0-75.0","","","","","","","","","","","","489","
            <center>
                <div id=""clip1"" class=""visual"">Clip 1<p>Press ""S""</p></div>
                <div id=""clip2"" class=""visual"">Clip 2<p>Press ""L""</p></div>
            </center>
            <p style=""text-align:center"">Which clip sounds more like someone who was born in Boston?</p>","l","","","","","","","","19","M4_04","M3_03","M4","M3","male","male","I'm still struggling to be honest.","Probably you heard on the radio or on the news, they are downsizing.","long","1","1","","",""
"","","","","","audio-keyboard-response","76","374293","0.0-76.0","","","","","","","","","","","","null","../audio/M3_04.WAV","null","M3_04","M3","male","1","2.564635","3.508","You had to learn about what they're talking about.","","","","","","","","","","","","","","",""
"","","","","","audio-keyboard-response","77","376373","0.0-77.0","","","","","","","","","","","","null","../audio/F2_03.WAV","s","F2_03","F2","female","2","2.078781","4.811","But it was illegal at that time, and I didn't know that.","","","","","","","","","","","","","","",""
"","","","","","html-keyboard-response","78","378376","0.0-78.0","","","","","","","","","","","","660","
            <center>
                <div id=""clip1"" class=""visual"">Clip 1<p>Press ""S""</p></div>
                <div id=""clip2"" class=""visual"">Clip 2<p>Press ""L""</p></div>
            </center>
            <p style=""text-align:center"">Which clip sounds more like someone who was born in Boston?</p>","s","","","","","","","","20","M3_04","F2_03","M3","F2","male","female","You had to learn about what they're talking about.","But it was illegal at that time, and I didn't know that.","long","1","1","","",""
"","","","","","audio-keyboard-response","79","384496","0.0-79.0","","","","","","","","","","","","null","../audio/F3_04.WAV","null","F3_04","F3","female","1","4.115500","2.430","they would also know just because it's easier to identify families.","","","","","","","","","","","","","","",""
"","","","","","audio-keyboard-response","80","387458","0.0-80.0","","","","","","","","","","","","null","../audio/F3_03.WAV","s","F3_03","F3","female","2","2.959219","2.028","So initially my father said no.","","","","","","","","","","","","","","",""
"","","","","","html-keyboard-response","81","389461","0.0-81.0","","","","","","","","","","","","711","
            <center>
                <div id=""clip1"" class=""visual"">Clip 1<p>Press ""S""</p></div>
                <div id=""clip2"" class=""visual"">Clip 2<p>Press ""L""</p></div>
            </center>
            <p style=""text-align:center"">Which clip sounds more like someone who was born in Boston?</p>","s","","","","","","","","1","F3_04","F3_03","F3","F3","female","female","they would also know just because it's easier to identify families.","So initially my father said no.","long","2","1","","",""
"","","","","","audio-keyboard-response","82","393025","0.0-82.0","","","","","","","","","","","","null","../audio/M5_04.WAV","null","M5_04","M5","male","1","1.560854","3.204","and the summer was cold.","","","","","","","","","","","","","","",""
"","","","","","audio-keyboard-response","83","394535","0.0-83.0","","","","","","","","","","","","null","../audio/M1_04.WAV","null","M1_04","M1","male","2","1.508312","4.640","It's a really nice place to live.","","","","","","","","","","","","","","",""
"","","","","","html-keyboard-response","84","396538","0.0-84.0","","","","","","","","","","","","null","
            <center>
                <div id=""clip1"" class=""visual"">Clip 1<p>Press ""S""</p></div>
                <div id=""clip2"" class=""visual"">Clip 2<p>Press ""L""</p></div>
            </center>
            <p style=""text-align:center"">Which clip sounds more like someone who was born in Boston?</p>","null","","","","","","","","2","M5_04","M1_04","M5","M1","male","male","and the summer was cold.","It's a really nice place to live.","long","2","1","","",""
"","","","","","audio-keyboard-response","85","401947","0.0-85.0","","","","","","","","","","","","null","../audio/F5_04.WAV","null","F5_04","F5","female","1","3.404396","2.056","After half a year, I start full-time.","","","","","","","","","","","","","","",""
"","","","","","audio-keyboard-response","86","404851","0.0-86.0","","","","","","","","","","","","null","../audio/F2_04.WAV","s","F2_04","F2","female","2","2.902938","4.134","They buy a whole pig and then they eat their way through it.","","","","","","","","","","","","","","",""
"","","","","","html-keyboard-response","87","406853","0.0-87.0","","","","","","","","","","","","553","
            <center>
                <div id=""clip1"" class=""visual"">Clip 1<p>Press ""S""</p></div>
                <div id=""clip2"" class=""visual"">Clip 2<p>Press ""L""</p></div>
            </center>
            <p style=""text-align:center"">Which clip sounds more like someone who was born in Boston?</p>","s","","","","","","","","3","F5_04","F2_04","F5","F2","female","female","After half a year, I start full-time.","They buy a whole pig and then they eat their way through it.","long","2","1","","",""
"","","","","","audio-keyboard-response","88","411884","0.0-88.0","","","","","","","","","","","","null","../audio/M2_03.WAV","null","M2_03","M2","male","1","3.026990","2.643","The airport is basically a one-story building.","","","","","","","","","","","","","","",""
"","","","","","audio-keyboard-response","89","415874","0.0-89.0","","","","","","","","","","","","null","../audio/F4_04.WAV","l","F4_04","F4","female","2","3.988719","3.509","So when I got in, I knew that I can take the train, it was easy to commute.","","","","","","","","","","","","","","",""
"","","","","","html-keyboard-response","90","417876","0.0-90.0","","","","","","","","","","","","1030","
            <center>
                <div id=""clip1"" class=""visual"">Clip 1<p>Press ""S""</p></div>
                <div id=""clip2"" class=""visual"">Clip 2<p>Press ""L""</p></div>
            </center>
            <p style=""text-align:center"">Which clip sounds more like someone who was born in Boston?</p>","l","","","","","","","","4","M2_03","F4_04","M2","F4","male","female","The airport is basically a one-story building.","So when I got in, I knew that I can take the train, it was easy to commute.","long","2","1","","",""
"","","","","","audio-keyboard-response","91","423258","0.0-91.0","","","","","","","","","","","","null","../audio/M3_03.WAV","null","M3_03","M3","male","1","3.378094","3.553","Probably you heard on the radio or on the news, they are downsizing.","","","","","","","","","","","","","","",""
"","","","","","audio-keyboard-response","92","427637","0.0-92.0","","","","","","","","","","","","null","../audio/M5_03.WAV","l","M5_03","M5","male","2","4.375990","1.829","So we start transporting, moving kids outside of the neighborhood.","","","","","","","","","","","","","","",""
"","","","","","html-keyboard-response","93","429640","0.0-93.0","","","","","","","","","","","","492","
            <center>
                <div id=""clip1"" class=""visual"">Clip 1<p>Press ""S""</p></div>
                <div id=""clip2"" class=""visual"">Clip 2<p>Press ""L""</p></div>
            </center>
            <p style=""text-align:center"">Which clip sounds more like someone who was born in Boston?</p>","l","","","","","","","","5","M3_03","M5_03","M3","M5","male","male","Probably you heard on the radio or on the news, they are downsizing.","So we start transporting, moving kids outside of the neighborhood.","long","2","1","","",""
"","","","","","audio-keyboard-response","94","433126","0.0-94.0","","","","","","","","","","","","null","../audio/M1_03.WAV","null","M1_03","M1","male","1","1.480896","2.701","you kind of get spoiled.","","","","","","","","","","","","","","",""
"","","","","","audio-keyboard-response","95","435308","0.0-95.0","","","","","","","","","","","","null","../audio/M2_04.WAV","s","M2_04","M2","male","2","2.180729","2.751","People just focus on making money.","","","","","","","","","","","","","","",""
"","","","","","html-keyboard-response","96","437311","0.0-96.0","","","","","","","","","","","","450","
            <center>
                <div id=""clip1"" class=""visual"">Clip 1<p>Press ""S""</p></div>
                <div id=""clip2"" class=""visual"">Clip 2<p>Press ""L""</p></div>
            </center>
            <p style=""text-align:center"">Which clip sounds more like someone who was born in Boston?</p>","s","","","","","","","","6","M1_03","M2_04","M1","M2","male","male","you kind of get spoiled.","People just focus on making money.","long","2","1","","",""
"","","","","","audio-keyboard-response","97","442985","0.0-97.0","","","","","","","","","","","","null","../audio/F4_03.WAV","null","F4_03","F4","female","1","3.670938","2.724","Yeah, it was an apartment building. It was like a one-bedroom","","","","","","","","","","","","","","",""
"","","","","","audio-keyboard-response","98","446149","0.0-98.0","","","","","","","","","","","","null","../audio/F5_03.WAV","s","F5_03","F5","female","2","3.162094","2.530","It was a totally new experience to me.","","","","","","","","","","","","","","",""
"","","","","","html-keyboard-response","99","448151","0.0-99.0","","","","","","","","","","","","636","
            <center>
                <div id=""clip1"" class=""visual"">Clip 1<p>Press ""S""</p></div>
                <div id=""clip2"" class=""visual"">Clip 2<p>Press ""L""</p></div>
            </center>
            <p style=""text-align:center"">Which clip sounds more like someone who was born in Boston?</p>","s","","","","","","","","7","F4_03","F5_03","F4","F5","female","female","Yeah, it was an apartment building. It was like a one-bedroom","It was a totally new experience to me.","long","2","1","","",""
"","","","","","audio-keyboard-response","100","451941","0.0-100.0","","","","","","","","","","","","null","../audio/M4_04.WAV","null","M4_04","M4","male","1","1.785187","3.361","I'm still struggling to be honest.","","","","","","","","","","","","","","",""
"","","","","","audio-keyboard-response","101","454022","0.0-101.0","","","","","","","","","","","","null","../audio/F2_03.WAV","l","F2_03","F2","female","2","2.078781","4.811","But it was illegal at that time, and I didn't know that.","","","","","","","","","","","","","","",""
"","","","","","html-keyboard-response","102","456025","0.0-102.0","","","","","","","","","","","","1367","
            <center>
                <div id=""clip1"" class=""visual"">Clip 1<p>Press ""S""</p></div>
                <div id=""clip2"" class=""visual"">Clip 2<p>Press ""L""</p></div>
            </center>
            <p style=""text-align:center"">Which clip sounds more like someone who was born in Boston?</p>","l","","","","","","","","8","M4_04","F2_03","M4","F2","male","female","I'm still struggling to be honest.","But it was illegal at that time, and I didn't know that.","long","2","1","","",""
"","","","","","audio-keyboard-response","103","460485","0.0-103.0","","","","","","","","","","","","null","../audio/F1_03.WAV","null","F1_03","F1","female","1","2.456333","2.442","I end up going to high school.","","","","","","","","","","","","","","",""
"","","","","","audio-keyboard-response","104","463051","0.0-104.0","","","","","","","","","","","","null","../audio/M3_04.WAV","s","M3_04","M3","male","2","2.564635","3.508","You had to learn about what they're talking about.","","","","","","","","","","","","","","",""
"","","","","","html-keyboard-response","105","465053","0.0-105.0","","","","","","","","","","","","548","
            <center>
                <div id=""clip1"" class=""visual"">Clip 1<p>Press ""S""</p></div>
                <div id=""clip2"" class=""visual"">Clip 2<p>Press ""L""</p></div>
            </center>
            <p style=""text-align:center"">Which clip sounds more like someone who was born in Boston?</p>","s","","","","","","","","9","F1_03","M3_04","F1","M3","female","male","I end up going to high school.","You had to learn about what they're talking about.","long","2","1","","",""
"","","","","","audio-keyboard-response","106","469195","0.0-106.0","","","","","","","","","","","","null","../audio/M4_03.WAV","null","M4_03","M4","male","1","2.137188","1.872","they didn't really respond","","","","","","","","","","","","","","",""
"","","","","","audio-keyboard-response","107","472373","0.0-107.0","","","","","","","","","","","","null","../audio/F1_04.WAV","l","F1_04","F1","female","2","3.175875","3.149","but majority of the time people offer to pick me up.","","","","","","","","","","","","","","",""
"","","","","","html-keyboard-response","108","474375","0.0-108.0","","","","","","","","","","","","498","
            <center>
                <div id=""clip1"" class=""visual"">Clip 1<p>Press ""S""</p></div>
                <div id=""clip2"" class=""visual"">Clip 2<p>Press ""L""</p></div>
            </center>
            <p style=""text-align:center"">Which clip sounds more like someone who was born in Boston?</p>","l","","","","","","","","10","M4_03","F1_04","M4","F1","male","female","they didn't really respond","but majority of the time people offer to pick me up.","long","2","1","","",""
"","","","","","audio-keyboard-response","109","479339","0.0-109.0","","","","","","","","","","","","null","../audio/F3_03.WAV","null","F3_03","F3","female","1","2.959219","2.028","So initially my father said no.","","","","","","","","","","","","","","",""
"","","","","","audio-keyboard-response","110","481479","0.0-110.0","","","","","","","","","","","","null","../audio/M4_03.WAV","s","M4_03","M4","male","2","2.137188","1.872","they didn't really respond","","","","","","","","","","","","","","",""
"","","","","","html-keyboard-response","111","483482","0.0-111.0","","","","","","","","","","","","721","
            <center>
                <div id=""clip1"" class=""visual"">Clip 1<p>Press ""S""</p></div>
                <div id=""clip2"" class=""visual"">Clip 2<p>Press ""L""</p></div>
            </center>
            <p style=""text-align:center"">Which clip sounds more like someone who was born in Boston?</p>","s","","","","","","","","11","F3_03","M4_03","F3","M4","female","male","So initially my father said no.","they didn't really respond","long","2","1","","",""
"","","","","","audio-keyboard-response","112","488891","0.0-112.0","","","","","","","","","","","","null","../audio/F5_04.WAV","null","F5_04","F5","female","1","3.404396","2.056","After half a year, I start full-time.","","","","","","","","","","","","","","",""
"","","","","","audio-keyboard-response","113","493008","0.0-113.0","","","","","","","","","","","","null","../audio/F3_04.WAV","s","F3_04","F3","female","2","4.115500","2.430","they would also know just because it's easier to identify families.","","","","","","","","","","","","","","",""
"","","","","","html-keyboard-response","114","495011","0.0-114.0","","","","","","","","","","","","753","
            <center>
                <div id=""clip1"" class=""visual"">Clip 1<p>Press ""S""</p></div>
                <div id=""clip2"" class=""visual"">Clip 2<p>Press ""L""</p></div>
            </center>
            <p style=""text-align:center"">Which clip sounds more like someone who was born in Boston?</p>","s","","","","","","","","12","F5_04","F3_04","F5","F3","female","female","After half a year, I start full-time.","they would also know just because it's easier to identify families.","long","2","1","","",""
"","","","","","audio-keyboard-response","115","498496","0.0-115.0","","","","","","","","","","","","null","../audio/M1_03.WAV","null","M1_03","M1","male","1","1.480896","2.701","you kind of get spoiled.","","","","","","","","","","","","","","",""
"","","","","","audio-keyboard-response","116","502486","0.0-116.0","","","","","","","","","","","","null","../audio/F4_04.WAV","l","F4_04","F4","female","2","3.988719","3.509","So when I got in, I knew that I can take the train, it was easy to commute.","","","","","","","","","","","","","","",""
"","","","","","html-keyboard-response","117","504489","0.0-117.0","","","","","","","","","","","","773","
            <center>
                <div id=""clip1"" class=""visual"">Clip 1<p>Press ""S""</p></div>
                <div id=""clip2"" class=""visual"">Clip 2<p>Press ""L""</p></div>
            </center>
            <p style=""text-align:center"">Which clip sounds more like someone who was born in Boston?</p>","l","","","","","","","","13","M1_03","F4_04","M1","F4","male","female","you kind of get spoiled.","So when I got in, I knew that I can take the train, it was easy to commute.","long","2","1","","",""
"","","","","","audio-keyboard-response","118","509871","0.0-118.0","","","","","","","","","","","","null","../audio/M3_03.WAV","null","M3_03","M3","male","1","3.378094","3.553","Probably you heard on the radio or on the news, they are downsizing.","","","","","","","","","","","","","","",""
"","","","","","audio-keyboard-response","119","511658","0.0-119.0","","","","","","","","","","","","null","../audio/M4_04.WAV","s","M4_04","M4","male","2","1.785187","3.361","I'm still struggling to be honest.","","","","","","","","","","","","","","",""
"","","","","","html-keyboard-response","120","513661","0.0-120.0","","","","","","","","","","","","737","
            <center>
                <div id=""clip1"" class=""visual"">Clip 1<p>Press ""S""</p></div>
                <div id=""clip2"" class=""visual"">Clip 2<p>Press ""L""</p></div>
            </center>
            <p style=""text-align:center"">Which clip sounds more like someone who was born in Boston?</p>","s","","","","","","","","14","M3_03","M4_04","M3","M4","male","male","Probably you heard on the radio or on the news, they are downsizing.","I'm still struggling to be honest.","long","2","1","","",""
"","","","","","audio-keyboard-response","121","518121","0.0-121.0","","","","","","","","","","","","null","../audio/F1_03.WAV","null","F1_03","F1","female","1","2.456333","2.442","I end up going to high school.","","","","","","","","","","","","","","",""
"","","","","","audio-keyboard-response","122","519684","0.0-122.0","","","","","","","","","","","","null","../audio/M5_04.WAV","l","M5_04","M5","male","2","1.560854","3.204","and the summer was cold.","","","","","","","","","","","","","","",""
"","","","","","html-keyboard-response","123","521688","0.0-123.0","","","","","","","","","","","","832","
            <center>
                <div id=""clip1"" class=""visual"">Clip 1<p>Press ""S""</p></div>
                <div id=""clip2"" class=""visual"">Clip 2<p>Press ""L""</p></div>
            </center>
            <p style=""text-align:center"">Which clip sounds more like someone who was born in Boston?</p>","l","","","","","","","","15","F1_03","M5_04","F1","M5","female","male","I end up going to high school.","and the summer was cold.","long","2","1","","",""
"","","","","","audio-keyboard-response","124","526594","0.0-124.0","","","","","","","","","","","","null","../audio/F2_04.WAV","null","F2_04","F2","female","1","2.902938","4.134","They buy a whole pig and then they eat their way through it.","","","","","","","","","","","","","","",""
"","","","","","audio-keyboard-response","125","528105","0.0-125.0","","","","","","","","","","","","null","../audio/M1_04.WAV","l","M1_04","M1","male","2","1.508312","4.640","It's a really nice place to live.","","","","","","","","","","","","","","",""
"","","","","","html-keyboard-response","126","530108","0.0-126.0","","","","","","","","","","","","714","
            <center>
                <div id=""clip1"" class=""visual"">Clip 1<p>Press ""S""</p></div>
                <div id=""clip2"" class=""visual"">Clip 2<p>Press ""L""</p></div>
            </center>
            <p style=""text-align:center"">Which clip sounds more like someone who was born in Boston?</p>","l","","","","","","","","16","F2_04","M1_04","F2","M1","female","male","They buy a whole pig and then they eat their way through it.","It's a really nice place to live.","long","2","1","","",""
"","","","","","audio-keyboard-response","127","536487","0.0-127.0","","","","","","","","","","","","null","../audio/M5_03.WAV","null","M5_03","M5","male","1","4.375990","1.829","So we start transporting, moving kids outside of the neighborhood.","","","","","","","","","","","","","","",""
"","","","","","audio-keyboard-response","128","538669","0.0-128.0","","","","","","","","","","","","null","../audio/M2_04.WAV","s","M2_04","M2","male","2","2.180729","2.751","People just focus on making money.","","","","","","","","","","","","","","",""
"","","","","","html-keyboard-response","129","540671","0.0-129.0","","","","","","","","","","","","455","
            <center>
                <div id=""clip1"" class=""visual"">Clip 1<p>Press ""S""</p></div>
                <div id=""clip2"" class=""visual"">Clip 2<p>Press ""L""</p></div>
            </center>
            <p style=""text-align:center"">Which clip sounds more like someone who was born in Boston?</p>","s","","","","","","","","17","M5_03","M2_04","M5","M2","male","male","So we start transporting, moving kids outside of the neighborhood.","People just focus on making money.","long","2","1","","",""
"","","","","","audio-keyboard-response","130","545702","0.0-130.0","","","","","","","","","","","","null","../audio/M2_03.WAV","null","M2_03","M2","male","1","3.026990","2.643","The airport is basically a one-story building.","","","","","","","","","","","","","","",""
"","","","","","audio-keyboard-response","131","548269","0.0-131.0","","","","","","","","","","","","null","../audio/M3_04.WAV","s","M3_04","M3","male","2","2.564635","3.508","You had to learn about what they're talking about.","","","","","","","","","","","","","","",""
"","","","","","html-keyboard-response","132","550271","0.0-132.0","","","","","","","","","","","","710","
            <center>
                <div id=""clip1"" class=""visual"">Clip 1<p>Press ""S""</p></div>
                <div id=""clip2"" class=""visual"">Clip 2<p>Press ""L""</p></div>
            </center>
            <p style=""text-align:center"">Which clip sounds more like someone who was born in Boston?</p>","s","","","","","","","","18","M2_03","M3_04","M2","M3","male","male","The airport is basically a one-story building.","You had to learn about what they're talking about.","long","2","1","","",""
"","","","","","audio-keyboard-response","133","555451","0.0-133.0","","","","","","","","","","","","null","../audio/F1_04.WAV","null","F1_04","F1","female","1","3.175875","3.149","but majority of the time people offer to pick me up.","","","","","","","","","","","","","","",""
"","","","","","audio-keyboard-response","134","557530","0.0-134.0","","","","","","","","","","","","null","../audio/F2_03.WAV","s","F2_03","F2","female","2","2.078781","4.811","But it was illegal at that time, and I didn't know that.","","","","","","","","","","","","","","",""
"","","","","","html-keyboard-response","135","559534","0.0-135.0","","","","","","","","","","","","607","
            <center>
                <div id=""clip1"" class=""visual"">Clip 1<p>Press ""S""</p></div>
                <div id=""clip2"" class=""visual"">Clip 2<p>Press ""L""</p></div>
            </center>
            <p style=""text-align:center"">Which clip sounds more like someone who was born in Boston?</p>","s","","","","","","","","19","F1_04","F2_03","F1","F2","female","female","but majority of the time people offer to pick me up.","But it was illegal at that time, and I didn't know that.","long","2","1","","",""
"","","","","","audio-keyboard-response","136","564702","0.0-136.0","","","","","","","","","","","","null","../audio/F5_03.WAV","null","F5_03","F5","female","1","3.162094","2.530","It was a totally new experience to me.","","","","","","","","","","","","","","",""
"","","","","","audio-keyboard-response","137","568374","0.0-137.0","","","","","","","","","","","","null","../audio/F4_03.WAV","l","F4_03","F4","female","2","3.670938","2.724","Yeah, it was an apartment building. It was like a one-bedroom","","","","","","","","","","","","","","",""
"","","","","","html-keyboard-response","138","570378","0.0-138.0","","","","","","","","","","","","674","
            <center>
                <div id=""clip1"" class=""visual"">Clip 1<p>Press ""S""</p></div>
                <div id=""clip2"" class=""visual"">Clip 2<p>Press ""L""</p></div>
            </center>
            <p style=""text-align:center"">Which clip sounds more like someone who was born in Boston?</p>","l","","","","","","","","20","F5_03","F4_03","F5","F4","female","female","It was a totally new experience to me.","Yeah, it was an apartment building. It was like a one-bedroom","long","2","1","","",""
"","","","","","audio-keyboard-response","139","575557","0.0-139.0","","","","","","","","","","","","null","../audio/F1_04.WAV","null","F1_04","F1","female","1","3.175875","3.149","but majority of the time people offer to pick me up.","","","","","","","","","","","","","","",""
"","","","","","audio-keyboard-response","140","579935","0.0-140.0","","","","","","","","","","","","null","../audio/M5_03.WAV","l","M5_03","M5","male","2","4.375990","1.829","So we start transporting, moving kids outside of the neighborhood.","","","","","","","","","","","","","","",""
"","","","","","html-keyboard-response","141","581937","0.0-141.0","","","","","","","","","","","","456","
            <center>
                <div id=""clip1"" class=""visual"">Clip 1<p>Press ""S""</p></div>
                <div id=""clip2"" class=""visual"">Clip 2<p>Press ""L""</p></div>
            </center>
            <p style=""text-align:center"">Which clip sounds more like someone who was born in Boston?</p>","l","","","","","","","","1","F1_04","M5_03","F1","M5","female","male","but majority of the time people offer to pick me up.","So we start transporting, moving kids outside of the neighborhood.","long","3","1","","",""
"","","","","","audio-keyboard-response","142","586505","0.0-142.0","","","","","","","","","","","","null","../audio/M3_04.WAV","null","M3_04","M3","male","1","2.564635","3.508","You had to learn about what they're talking about.","","","","","","","","","","","","","","",""
"","","","","","audio-keyboard-response","143","589410","0.0-143.0","","","","","","","","","","","","null","../audio/F2_04.WAV","l","F2_04","F2","female","2","2.902938","4.134","They buy a whole pig and then they eat their way through it.","","","","","","","","","","","","","","",""
"","","","","","html-keyboard-response","144","591413","0.0-144.0","","","","","","","","","","","","588","
            <center>
                <div id=""clip1"" class=""visual"">Clip 1<p>Press ""S""</p></div>
                <div id=""clip2"" class=""visual"">Clip 2<p>Press ""L""</p></div>
            </center>
            <p style=""text-align:center"">Which clip sounds more like someone who was born in Boston?</p>","l","","","","","","","","2","M3_04","F2_04","M3","F2","male","female","You had to learn about what they're talking about.","They buy a whole pig and then they eat their way through it.","long","3","1","","",""
"","","","","","audio-keyboard-response","145","595203","0.0-145.0","","","","","","","","","","","","null","../audio/M4_04.WAV","null","M4_04","M4","male","1","1.785187","3.361","I'm still struggling to be honest.","","","","","","","","","","","","","","",""
"","","","","","audio-keyboard-response","146","596713","0.0-146.0","","","","","","","","","","","","null","../audio/M1_04.WAV","l","M1_04","M1","male","2","1.508312","4.640","It's a really nice place to live.","","","","","","","","","","","","","","",""
"","","","","","html-keyboard-response","147","598716","0.0-147.0","","","","","","","","","","","","866","
            <center>
                <div id=""clip1"" class=""visual"">Clip 1<p>Press ""S""</p></div>
                <div id=""clip2"" class=""visual"">Clip 2<p>Press ""L""</p></div>
            </center>
            <p style=""text-align:center"">Which clip sounds more like someone who was born in Boston?</p>","l","","","","","","","","3","M4_04","M1_04","M4","M1","male","male","I'm still struggling to be honest.","It's a really nice place to live.","long","3","1","","",""
"","","","","","audio-keyboard-response","148","602200","0.0-148.0","","","","","","","","","","","","null","../audio/M1_03.WAV","null","M1_03","M1","male","1","1.480896","2.701","you kind of get spoiled.","","","","","","","","","","","","","","",""
"","","","","","audio-keyboard-response","149","605364","0.0-149.0","","","","","","","","","","","","null","../audio/F5_03.WAV","l","F5_03","F5","female","2","3.162094","2.530","It was a totally new experience to me.","","","","","","","","","","","","","","",""
"","","","","","html-keyboard-response","150","607366","0.0-150.0","","","","","","","","","","","","978","
            <center>
                <div id=""clip1"" class=""visual"">Clip 1<p>Press ""S""</p></div>
                <div id=""clip2"" class=""visual"">Clip 2<p>Press ""L""</p></div>
            </center>
            <p style=""text-align:center"">Which clip sounds more like someone who was born in Boston?</p>","l","","","","","","","","4","M1_03","F5_03","M1","F5","male","female","you kind of get spoiled.","It was a totally new experience to me.","long","3","1","","",""
"","","","","","audio-keyboard-response","151","613359","0.0-151.0","","","","","","","","","","","","null","../audio/F4_04.WAV","null","F4_04","F4","female","1","3.988719","3.509","So when I got in, I knew that I can take the train, it was easy to commute.","","","","","","","","","","","","","","",""
"","","","","","audio-keyboard-response","152","616388","0.0-152.0","","","","","","","","","","","","null","../audio/M2_03.WAV","s","M2_03","M2","male","2","3.026990","2.643","The airport is basically a one-story building.","","","","","","","","","","","","","","",""
"","","","","","html-keyboard-response","153","618390","0.0-153.0","","","","","","","","","","","","475","
            <center>
                <div id=""clip1"" class=""visual"">Clip 1<p>Press ""S""</p></div>
                <div id=""clip2"" class=""visual"">Clip 2<p>Press ""L""</p></div>
            </center>
            <p style=""text-align:center"">Which clip sounds more like someone who was born in Boston?</p>","s","","","","","","","","5","F4_04","M2_03","F4","M2","female","male","So when I got in, I knew that I can take the train, it was easy to commute.","The airport is basically a one-story building.","long","3","1","","",""
"","","","","","audio-keyboard-response","154","622574","0.0-154.0","","","","","","","","","","","","null","../audio/M2_04.WAV","null","M2_04","M2","male","1","2.180729","2.751","People just focus on making money.","","","","","","","","","","","","","","",""
"","","","","","audio-keyboard-response","155","626247","0.0-155.0","","","","","","","","","","","","null","../audio/F4_03.WAV","l","F4_03","F4","female","2","3.670938","2.724","Yeah, it was an apartment building. It was like a one-bedroom","","","","","","","","","","","","","","",""
"","","","","","html-keyboard-response","156","628250","0.0-156.0","","","","","","","","","","","","537","
            <center>
                <div id=""clip1"" class=""visual"">Clip 1<p>Press ""S""</p></div>
                <div id=""clip2"" class=""visual"">Clip 2<p>Press ""L""</p></div>
            </center>
            <p style=""text-align:center"">Which clip sounds more like someone who was born in Boston?</p>","l","","","","","","","","6","M2_04","F4_03","M2","F4","male","female","People just focus on making money.","Yeah, it was an apartment building. It was like a one-bedroom","long","3","1","","",""
"","","","","","audio-keyboard-response","157","632712","0.0-157.0","","","","","","","","","","","","null","../audio/F1_03.WAV","null","F1_03","F1","female","1","2.456333","2.442","I end up going to high school.","","","","","","","","","","","","","","",""
"","","","","","audio-keyboard-response","158","634852","0.0-158.0","","","","","","","","","","","","null","../audio/M4_03.WAV","s","M4_03","M4","male","2","2.137188","1.872","they didn't really respond","","","","","","","","","","","","","","",""
"","","","","","html-keyboard-response","159","636854","0.0-159.0","","","","","","","","","","","","1112","
            <center>
                <div id=""clip1"" class=""visual"">Clip 1<p>Press ""S""</p></div>
                <div id=""clip2"" class=""visual"">Clip 2<p>Press ""L""</p></div>
            </center>
            <p style=""text-align:center"">Which clip sounds more like someone who was born in Boston?</p>","s","","","","","","","","7","F1_03","M4_03","F1","M4","female","male","I end up going to high school.","they didn't really respond","long","3","1","","",""
"","","","","","audio-keyboard-response","160","640419","0.0-160.0","","","","","","","","","","","","null","../audio/M5_04.WAV","null","M5_04","M5","male","1","1.560854","3.204","and the summer was cold.","","","","","","","","","","","","","","",""
"","","","","","audio-keyboard-response","161","643800","0.0-161.0","","","","","","","","","","","","null","../audio/M3_03.WAV","l","M3_03","M3","male","2","3.378094","3.553","Probably you heard on the radio or on the news, they are downsizing.","","","","","","","","","","","","","","",""
"","","","","","html-keyboard-response","162","645803","0.0-162.0","","","","","","","","","","","","558","
            <center>
                <div id=""clip1"" class=""visual"">Clip 1<p>Press ""S""</p></div>
                <div id=""clip2"" class=""visual"">Clip 2<p>Press ""L""</p></div>
            </center>
            <p style=""text-align:center"">Which clip sounds more like someone who was born in Boston?</p>","l","","","","","","","","8","M5_04","M3_03","M5","M3","male","male","and the summer was cold.","Probably you heard on the radio or on the news, they are downsizing.","long","3","1","","",""
"","","","","","audio-keyboard-response","163","650767","0.0-163.0","","","","","","","","","","","","null","../audio/F3_03.WAV","null","F3_03","F3","female","1","2.959219","2.028","So initially my father said no.","","","","","","","","","","","","","","",""
"","","","","","audio-keyboard-response","164","654883","0.0-164.0","","","","","","","","","","","","null","../audio/F3_04.WAV","l","F3_04","F3","female","2","4.115500","2.430","they would also know just because it's easier to identify families.","","","","","","","","","","","","","","",""
"","","","","","html-keyboard-response","165","656887","0.0-165.0","","","","","","","","","","","","882","
            <center>
                <div id=""clip1"" class=""visual"">Clip 1<p>Press ""S""</p></div>
                <div id=""clip2"" class=""visual"">Clip 2<p>Press ""L""</p></div>
            </center>
            <p style=""text-align:center"">Which clip sounds more like someone who was born in Boston?</p>","l","","","","","","","","9","F3_03","F3_04","F3","F3","female","female","So initially my father said no.","they would also know just because it's easier to identify families.","long","3","1","","",""
"","","","","","audio-keyboard-response","166","660970","0.0-166.0","","","","","","","","","","","","null","../audio/F2_03.WAV","null","F2_03","F2","female","1","2.078781","4.811","But it was illegal at that time, and I didn't know that.","","","","","","","","","","","","","","",""
"","","","","","audio-keyboard-response","167","664377","0.0-167.0","","","","","","","","","","","","null","../audio/F5_04.WAV","s","F5_04","F5","female","2","3.404396","2.056","After half a year, I start full-time.","","","","","","","","","","","","","","",""
"","","","","","html-keyboard-response","168","666380","0.0-168.0","","","","","","","","","","","","612","
            <center>
                <div id=""clip1"" class=""visual"">Clip 1<p>Press ""S""</p></div>
                <div id=""clip2"" class=""visual"">Clip 2<p>Press ""L""</p></div>
            </center>
            <p style=""text-align:center"">Which clip sounds more like someone who was born in Boston?</p>","s","","","","","","","","10","F2_03","F5_04","F2","F5","female","female","But it was illegal at that time, and I didn't know that.","After half a year, I start full-time.","long","3","1","","",""
"","","","","","audio-keyboard-response","169","671762","0.0-169.0","","","","","","","","","","","","null","../audio/M3_03.WAV","null","M3_03","M3","male","1","3.378094","3.553","Probably you heard on the radio or on the news, they are downsizing.","","","","","","","","","","","","","","",""
"","","","","","audio-keyboard-response","170","674668","0.0-170.0","","","","","","","","","","","","null","../audio/F2_04.WAV","s","F2_04","F2","female","2","2.902938","4.134","They buy a whole pig and then they eat their way through it.","","","","","","","","","","","","","","",""
"","","","","","html-keyboard-response","171","676671","0.0-171.0","","","","","","","","","","","","560","
            <center>
                <div id=""clip1"" class=""visual"">Clip 1<p>Press ""S""</p></div>
                <div id=""clip2"" class=""visual"">Clip 2<p>Press ""L""</p></div>
            </center>
            <p style=""text-align:center"">Which clip sounds more like someone who was born in Boston?</p>","s","","","","","","","","11","M3_03","F2_04","M3","F2","male","female","Probably you heard on the radio or on the news, they are downsizing.","They buy a whole pig and then they eat their way through it.","long","3","1","","",""
"","","","","","audio-keyboard-response","172","680183","0.0-172.0","","","","","","","","","","","","null","../audio/M1_04.WAV","null","M1_04","M1","male","1","1.508312","4.640","It's a really nice place to live.","","","","","","","","","","","","","","",""
"","","","","","audio-keyboard-response","173","684173","0.0-173.0","","","","","","","","","","","","null","../audio/F4_04.WAV","l","F4_04","F4","female","2","3.988719","3.509","So when I got in, I knew that I can take the train, it was easy to commute.","","","","","","","","","","","","","","",""
"","","","","","html-keyboard-response","174","686176","0.0-174.0","","","","","","","","","","","","683","
            <center>
                <div id=""clip1"" class=""visual"">Clip 1<p>Press ""S""</p></div>
                <div id=""clip2"" class=""visual"">Clip 2<p>Press ""L""</p></div>
            </center>
            <p style=""text-align:center"">Which clip sounds more like someone who was born in Boston?</p>","l","","","","","","","","12","M1_04","F4_04","M1","F4","male","female","It's a really nice place to live.","So when I got in, I knew that I can take the train, it was easy to commute.","long","3","1","","",""
"","","","","","audio-keyboard-response","175","690317","0.0-175.0","","","","","","","","","","","","null","../audio/M4_03.WAV","null","M4_03","M4","male","1","2.137188","1.872","they didn't really respond","","","","","","","","","","","","","","",""
"","","","","","audio-keyboard-response","176","693723","0.0-176.0","","","","","","","","","","","","null","../audio/F5_04.WAV","l","F5_04","F5","female","2","3.404396","2.056","After half a year, I start full-time.","","","","","","","","","","","","","","",""
"","","","","","html-keyboard-response","177","695726","0.0-177.0","","","","","","","","","","","","963","
            <center>
                <div id=""clip1"" class=""visual"">Clip 1<p>Press ""S""</p></div>
                <div id=""clip2"" class=""visual"">Clip 2<p>Press ""L""</p></div>
            </center>
            <p style=""text-align:center"">Which clip sounds more like someone who was born in Boston?</p>","l","","","","","","","","13","M4_03","F5_04","M4","F5","male","female","they didn't really respond","After half a year, I start full-time.","long","3","1","","",""
"","","","","","audio-keyboard-response","178","700757","0.0-178.0","","","","","","","","","","","","null","../audio/M2_03.WAV","null","M2_03","M2","male","1","3.026990","2.643","The airport is basically a one-story building.","","","","","","","","","","","","","","",""
"","","","","","audio-keyboard-response","179","702544","0.0-179.0","","","","","","","","","","","","null","../audio/M4_04.WAV","l","M4_04","M4","male","2","1.785187","3.361","I'm still struggling to be honest.","","","","","","","","","","","","","","",""
"","","","","","html-keyboard-response","180","704547","0.0-180.0","","","","","","","","","","","","753","
            <center>
                <div id=""clip1"" class=""visual"">Clip 1<p>Press ""S""</p></div>
                <div id=""clip2"" class=""visual"">Clip 2<p>Press ""L""</p></div>
            </center>
            <p style=""text-align:center"">Which clip sounds more like someone who was born in Boston?</p>","l","","","","","","","","14","M2_03","M4_04","M2","M4","male","male","The airport is basically a one-story building.","I'm still struggling to be honest.","long","3","1","","",""
"","","","","","audio-keyboard-response","181","710666","0.0-181.0","","","","","","","","","","","","null","../audio/F3_04.WAV","null","F3_04","F3","female","1","4.115500","2.430","they would also know just because it's easier to identify families.","","","","","","","","","","","","","","",""
"","","","","","audio-keyboard-response","182","713843","0.0-182.0","","","","","","","","","","","","null","../audio/F1_04.WAV","l","F1_04","F1","female","2","3.175875","3.149","but majority of the time people offer to pick me up.","","","","","","","","","","","","","","",""
"","","","","","html-keyboard-response","183","715846","0.0-183.0","","","","","","","","","","","","466","
            <center>
                <div id=""clip1"" class=""visual"">Clip 1<p>Press ""S""</p></div>
                <div id=""clip2"" class=""visual"">Clip 2<p>Press ""L""</p></div>
            </center>
            <p style=""text-align:center"">Which clip sounds more like someone who was born in Boston?</p>","l","","","","","","","","15","F3_04","F1_04","F3","F1","female","female","they would also know just because it's easier to identify families.","but majority of the time people offer to pick me up.","long","3","1","","",""
"","","","","","audio-keyboard-response","184","720031","0.0-184.0","","","","","","","","","","","","null","../audio/M2_04.WAV","null","M2_04","M2","male","1","2.180729","2.751","People just focus on making money.","","","","","","","","","","","","","","",""
"","","","","","audio-keyboard-response","185","722488","0.0-185.0","","","","","","","","","","","","null","../audio/F1_03.WAV","l","F1_03","F1","female","2","2.456333","2.442","I end up going to high school.","","","","","","","","","","","","","","",""
"","","","","","html-keyboard-response","186","724491","0.0-186.0","","","","","","","","","","","","506","
            <center>
                <div id=""clip1"" class=""visual"">Clip 1<p>Press ""S""</p></div>
                <div id=""clip2"" class=""visual"">Clip 2<p>Press ""L""</p></div>
            </center>
            <p style=""text-align:center"">Which clip sounds more like someone who was born in Boston?</p>","l","","","","","","","","16","M2_04","F1_03","M2","F1","male","female","People just focus on making money.","I end up going to high school.","long","3","1","","",""
"","","","","","audio-keyboard-response","187","729455","0.0-187.0","","","","","","","","","","","","null","../audio/F3_03.WAV","null","F3_03","F3","female","1","2.959219","2.028","So initially my father said no.","","","","","","","","","","","","","","",""
"","","","","","audio-keyboard-response","188","732620","0.0-188.0","","","","","","","","","","","","null","../audio/F5_03.WAV","s","F5_03","F5","female","2","3.162094","2.530","It was a totally new experience to me.","","","","","","","","","","","","","","",""
"","","","","","html-keyboard-response","189","734623","0.0-189.0","","","","","","","","","","","","569","
            <center>
                <div id=""clip1"" class=""visual"">Clip 1<p>Press ""S""</p></div>
                <div id=""clip2"" class=""visual"">Clip 2<p>Press ""L""</p></div>
            </center>
            <p style=""text-align:center"">Which clip sounds more like someone who was born in Boston?</p>","s","","","","","","","","17","F3_03","F5_03","F3","F5","female","female","So initially my father said no.","It was a totally new experience to me.","long","3","1","","",""
"","","","","","audio-keyboard-response","190","741001","0.0-190.0","","","","","","","","","","","","null","../audio/M5_03.WAV","null","M5_03","M5","male","1","4.375990","1.829","So we start transporting, moving kids outside of the neighborhood.","","","","","","","","","","","","","","",""
"","","","","","audio-keyboard-response","191","744674","0.0-191.0","","","","","","","","","","","","null","../audio/F4_03.WAV","s","F4_03","F4","female","2","3.670938","2.724","Yeah, it was an apartment building. It was like a one-bedroom","","","","","","","","","","","","","","",""
"","","","","","html-keyboard-response","192","746677","0.0-192.0","","","","","","","","","","","","483","
            <center>
                <div id=""clip1"" class=""visual"">Clip 1<p>Press ""S""</p></div>
                <div id=""clip2"" class=""visual"">Clip 2<p>Press ""L""</p></div>
            </center>
            <p style=""text-align:center"">Which clip sounds more like someone who was born in Boston?</p>","s","","","","","","","","18","M5_03","F4_03","M5","F4","male","female","So we start transporting, moving kids outside of the neighborhood.","Yeah, it was an apartment building. It was like a one-bedroom","long","3","1","","",""
"","","","","","audio-keyboard-response","193","750162","0.0-193.0","","","","","","","","","","","","null","../audio/M1_03.WAV","null","M1_03","M1","male","1","1.480896","2.701","you kind of get spoiled.","","","","","","","","","","","","","","",""
"","","","","","audio-keyboard-response","194","752243","0.0-194.0","","","","","","","","","","","","null","../audio/F2_03.WAV","l","F2_03","F2","female","2","2.078781","4.811","But it was illegal at that time, and I didn't know that.","","","","","","","","","","","","","","",""
"","","","","","html-keyboard-response","195","754245","0.0-195.0","","","","","","","","","","","","982","
            <center>
                <div id=""clip1"" class=""visual"">Clip 1<p>Press ""S""</p></div>
                <div id=""clip2"" class=""visual"">Clip 2<p>Press ""L""</p></div>
            </center>
            <p style=""text-align:center"">Which clip sounds more like someone who was born in Boston?</p>","l","","","","","","","","19","M1_03","F2_03","M1","F2","male","female","you kind of get spoiled.","But it was illegal at that time, and I didn't know that.","long","3","1","","",""
"","","","","","audio-keyboard-response","196","758814","0.0-196.0","","","","","","","","","","","","null","../audio/M3_04.WAV","null","M3_04","M3","male","1","2.564635","3.508","You had to learn about what they're talking about.","","","","","","","","","","","","","","",""
"","","","","","audio-keyboard-response","197","760376","0.0-197.0","","","","","","","","","","","","null","../audio/M5_04.WAV","l","M5_04","M5","male","2","1.560854","3.204","and the summer was cold.","","","","","","","","","","","","","","",""
"","","","","","html-keyboard-response","198","762379","0.0-198.0","","","","","","","","","","","","713","
            <center>
                <div id=""clip1"" class=""visual"">Clip 1<p>Press ""S""</p></div>
                <div id=""clip2"" class=""visual"">Clip 2<p>Press ""L""</p></div>
            </center>
            <p style=""text-align:center"">Which clip sounds more like someone who was born in Boston?</p>","l","","","","","","","","20","M3_04","M5_04","M3","M5","male","male","You had to learn about what they're talking about.","and the summer was cold.","long","3","1","","",""
"","","","","","audio-keyboard-response","199","766286","0.0-199.0","","","","","","","","","","","","null","../audio/F2_02.WAV","null","F2_02","F2","female","1","1.902969","2.627","And so my mother also","","","","","","","","","","","","","","",""
"","","","","","audio-keyboard-response","200","767171","0.0-200.0","","","","","","","","","","","","null","../audio/M4_01.WAV","s","M4_01","M4","male","2","0.883969","3.393","yeah last fall","","","","","","","","","","","","","","",""
"","","","","","html-keyboard-response","201","769173","0.0-201.0","","","","","","","","","","","","699","
            <center>
                <div id=""clip1"" class=""visual"">Clip 1<p>Press ""S""</p></div>
                <div id=""clip2"" class=""visual"">Clip 2<p>Press ""L""</p></div>
            </center>
            <p style=""text-align:center"">Which clip sounds more like someone who was born in Boston?</p>","s","","","","","","","","1","F2_02","M4_01","F2","M4","female","male","And so my mother also","yeah last fall","short","4","1","","",""
"","","","","","audio-keyboard-response","202","773717","0.0-202.0","","","","","","","","","","","","null","../audio/M4_02.WAV","null","M4_02","M4","male","1","2.538281","2.364","the most intimate group of friends,","","","","","","","","","","","","","","",""
"","","","","","audio-keyboard-response","203","775428","0.0-203.0","","","","","","","","","","","","null","../audio/M3_02.WAV","l","M3_02","M3","male","2","1.709750","2.924","And then on Sunday morning","","","","","","","","","","","","","","",""
"","","","","","html-keyboard-response","204","777431","0.0-204.0","","","","","","","","","","","","602","
            <center>
                <div id=""clip1"" class=""visual"">Clip 1<p>Press ""S""</p></div>
                <div id=""clip2"" class=""visual"">Clip 2<p>Press ""L""</p></div>
            </center>
            <p style=""text-align:center"">Which clip sounds more like someone who was born in Boston?</p>","l","","","","","","","","2","M4_02","M3_02","M4","M3","male","male","the most intimate group of friends,","And then on Sunday morning","short","4","1","","",""
"","","","","","audio-keyboard-response","205","782165","0.0-205.0","","","","","","","","","","","","null","../audio/F1_01.WAV","null","F1_01","F1","female","1","2.729260","1.832","because of the limited space.","","","","","","","","","","","","","","",""
"","","","","","audio-keyboard-response","206","786435","0.0-206.0","","","","","","","","","","","","null","../audio/F3_01.WAV","l","F3_01","F3","female","2","4.267563","1.875","my parents, my two sisters, and my two brothers.","","","","","","","","","","","","","","",""
"","","","","","html-keyboard-response","207","788437","0.0-207.0","","","","","","","","","","","","888","
            <center>
                <div id=""clip1"" class=""visual"">Clip 1<p>Press ""S""</p></div>
                <div id=""clip2"" class=""visual"">Clip 2<p>Press ""L""</p></div>
            </center>
            <p style=""text-align:center"">Which clip sounds more like someone who was born in Boston?</p>","l","","","","","","","","3","F1_01","F3_01","F1","F3","female","female","because of the limited space.","my parents, my two sisters, and my two brothers.","short","4","1","","",""
"","","","","","audio-keyboard-response","208","792191","0.0-208.0","","","","","","","","","","","","null","../audio/F5_02.WAV","null","F5_02","F5","female","1","1.750198","2.286","My father also, you know,","","","","","","","","","","","","","","",""
"","","","","","audio-keyboard-response","209","794859","0.0-209.0","","","","","","","","","","","","null","../audio/M2_02.WAV","s","M2_02","M2","male","2","2.665333","3.001","But later on, when I traveled quite a bit,","","","","","","","","","","","","","","",""
"","","","","","html-keyboard-response","210","796861","0.0-210.0","","","","","","","","","","","","543","
            <center>
                <div id=""clip1"" class=""visual"">Clip 1<p>Press ""S""</p></div>
                <div id=""clip2"" class=""visual"">Clip 2<p>Press ""L""</p></div>
            </center>
            <p style=""text-align:center"">Which clip sounds more like someone who was born in Boston?</p>","s","","","","","","","","4","F5_02","M2_02","F5","M2","female","male","My father also, you know,","But later on, when I traveled quite a bit,","short","4","1","","",""
"","","","","","audio-keyboard-response","211","801782","0.0-211.0","","","","","","","","","","","","null","../audio/F4_02.WAV","null","F4_02","F4","female","1","2.916635","2.058","Yeah, a little bit, like elementary school.","","","","","","","","","","","","","","",""
"","","","","","audio-keyboard-response","212","803619","0.0-212.0","","","","","","","","","","","","null","../audio/F4_01.WAV","s","F4_01","F4","female","2","1.835479","2.724","Probably right before I turned six.","","","","","","","","","","","","","","",""
"","","","","","html-keyboard-response","213","805621","0.0-213.0","","","","","","","","","","","","783","
            <center>
                <div id=""clip1"" class=""visual"">Clip 1<p>Press ""S""</p></div>
                <div id=""clip2"" class=""visual"">Clip 2<p>Press ""L""</p></div>
            </center>
            <p style=""text-align:center"">Which clip sounds more like someone who was born in Boston?</p>","s","","","","","","","","5","F4_02","F4_01","F4","F4","female","female","Yeah, a little bit, like elementary school.","Probably right before I turned six.","short","4","1","","",""
"","","","","","audio-keyboard-response","214","808791","0.0-214.0","","","","","","","","","","","","null","../audio/F3_02.WAV","null","F3_02","F3","female","1","1.165760","2.574","as homeless people.","","","","","","","","","","","","","","",""
"","","","","","audio-keyboard-response","215","810013","0.0-215.0","","","","","","","","","","","","null","../audio/M1_01.WAV","s","M1_01","M1","male","2","1.220375","4.095","being in the medical field,","","","","","","","","","","","","","","",""
"","","","","","html-keyboard-response","216","812016","0.0-216.0","","","","","","","","","","","","620","
            <center>
                <div id=""clip1"" class=""visual"">Clip 1<p>Press ""S""</p></div>
                <div id=""clip2"" class=""visual"">Clip 2<p>Press ""L""</p></div>
            </center>
            <p style=""text-align:center"">Which clip sounds more like someone who was born in Boston?</p>","s","","","","","","","","6","F3_02","M1_01","F3","M1","female","male","as homeless people.","being in the medical field,","short","4","1","","",""
"","","","","","audio-keyboard-response","217","814856","0.0-217.0","","","","","","","","","","","","null","../audio/F5_01.WAV","null","F5_01","F5","female","1","0.835490","3.592","Oh my god.","","","","","","","","","","","","","","",""
"","","","","","audio-keyboard-response","218","816513","0.0-218.0","","","","","","","","","","","","null","../audio/F2_01.WAV","l","F2_01","F2","female","2","1.654760","3.021","and then upstairs in her apartment,","","","","","","","","","","","","","","",""
"","","","","","html-keyboard-response","219","818516","0.0-219.0","","","","","","","","","","","","534","
            <center>
                <div id=""clip1"" class=""visual"">Clip 1<p>Press ""S""</p></div>
                <div id=""clip2"" class=""visual"">Clip 2<p>Press ""L""</p></div>
            </center>
            <p style=""text-align:center"">Which clip sounds more like someone who was born in Boston?</p>","l","","","","","","","","7","F5_01","F2_01","F5","F2","female","female","Oh my god.","and then upstairs in her apartment,","short","4","1","","",""
"","","","","","audio-keyboard-response","220","821517","0.0-220.0","","","","","","","","","","","","null","../audio/M1_02.WAV","null","M1_02","M1","male","1","0.999906","2.000","parallel ways.","","","","","","","","","","","","","","",""
"","","","","","audio-keyboard-response","221","823384","0.0-221.0","","","","","","","","","","","","null","../audio/M5_01.WAV","l","M5_01","M5","male","2","1.863625","3.755","half an hour, probably fourty five minutes away.","","","","","","","","","","","","","","",""
"","","","","","html-keyboard-response","222","825387","0.0-222.0","","","","","","","","","","","","479","
            <center>
                <div id=""clip1"" class=""visual"">Clip 1<p>Press ""S""</p></div>
                <div id=""clip2"" class=""visual"">Clip 2<p>Press ""L""</p></div>
            </center>
            <p style=""text-align:center"">Which clip sounds more like someone who was born in Boston?</p>","l","","","","","","","","8","M1_02","M5_01","M1","M5","male","male","parallel ways.","half an hour, probably fourty five minutes away.","short","4","1","","",""
"","","","","","audio-keyboard-response","223","828416","0.0-223.0","","","","","","","","","","","","null","../audio/M2_01.WAV","null","M2_01","M2","male","1","1.025729","3.900","being in the squallor.","","","","","","","","","","","","","","",""
"","","","","","audio-keyboard-response","224","830647","0.0-224.0","","","","","","","","","","","","null","../audio/M5_02.WAV","l","M5_02","M5","male","2","2.229229","2.244","Because back in the seventies,","","","","","","","","","","","","","","",""
"","","","","","html-keyboard-response","225","832650","0.0-225.0","","","","","","","","","","","","553","
            <center>
                <div id=""clip1"" class=""visual"">Clip 1<p>Press ""S""</p></div>
                <div id=""clip2"" class=""visual"">Clip 2<p>Press ""L""</p></div>
            </center>
            <p style=""text-align:center"">Which clip sounds more like someone who was born in Boston?</p>","l","","","","","","","","9","M2_01","M5_02","M2","M5","male","male","being in the squallor.","Because back in the seventies,","short","4","1","","",""
"","","","","","audio-keyboard-response","226","836941","0.0-226.0","","","","","","","","","","","","null","../audio/F1_02.WAV","null","F1_02","F1","female","1","2.286385","2.187","clothes or fashion for that matter.","","","","","","","","","","","","","","",""
"","","","","","audio-keyboard-response","227","838603","0.0-227.0","","","","","","","","","","","","null","../audio/M3_01.WAV","s","M3_01","M3","male","2","1.659469","2.411","to further my education.","","","","","","","","","","","","","","",""
"","","","","","html-keyboard-response","228","840605","0.0-228.0","","","","","","","","","","","","629","
            <center>
                <div id=""clip1"" class=""visual"">Clip 1<p>Press ""S""</p></div>
                <div id=""clip2"" class=""visual"">Clip 2<p>Press ""L""</p></div>
            </center>
            <p style=""text-align:center"">Which clip sounds more like someone who was born in Boston?</p>","s","","","","","","","","10","F1_02","M3_01","F1","M3","female","male","clothes or fashion for that matter.","to further my education.","short","4","1","","",""
"","","","","","audio-keyboard-response","229","843493","0.0-229.0","","","","","","","","","","","","null","../audio/M4_01.WAV","null","M4_01","M4","male","1","0.883969","3.393","yeah last fall","","","","","","","","","","","","","","",""
"","","","","","audio-keyboard-response","230","844520","0.0-230.0","","","","","","","","","","","","null","../audio/M2_01.WAV","l","M2_01","M2","male","2","1.025729","3.900","being in the squallor.","","","","","","","","","","","","","","",""
"","","","","","html-keyboard-response","231","846522","0.0-231.0","","","","","","","","","","","","719","
            <center>
                <div id=""clip1"" class=""visual"">Clip 1<p>Press ""S""</p></div>
                <div id=""clip2"" class=""visual"">Clip 2<p>Press ""L""</p></div>
            </center>
            <p style=""text-align:center"">Which clip sounds more like someone who was born in Boston?</p>","l","","","","","","","","11","M4_01","M2_01","M4","M2","male","male","yeah last fall","being in the squallor.","short","4","1","","",""
"","","","","","audio-keyboard-response","232","850429","0.0-232.0","","","","","","","","","","","","null","../audio/F2_02.WAV","null","F2_02","F2","female","1","1.902969","2.627","And so my mother also","","","","","","","","","","","","","","",""
"","","","","","audio-keyboard-response","233","852183","0.0-233.0","","","","","","","","","","","","null","../audio/F5_02.WAV","s","F5_02","F5","female","2","1.750198","2.286","My father also, you know,","","","","","","","","","","","","","","",""
"","","","","","html-keyboard-response","234","854186","0.0-234.0","","","","","","","","","","","","707","
            <center>
                <div id=""clip1"" class=""visual"">Clip 1<p>Press ""S""</p></div>
                <div id=""clip2"" class=""visual"">Clip 2<p>Press ""L""</p></div>
            </center>
            <p style=""text-align:center"">Which clip sounds more like someone who was born in Boston?</p>","s","","","","","","","","12","F2_02","F5_02","F2","F5","female","female","And so my mother also","My father also, you know,","short","4","1","","",""
"","","","","","audio-keyboard-response","235","858919","0.0-235.0","","","","","","","","","","","","null","../audio/F1_01.WAV","null","F1_01","F1","female","1","2.729260","1.832","because of the limited space.","","","","","","","","","","","","","","",""
"","","","","","audio-keyboard-response","236","860785","0.0-236.0","","","","","","","","","","","","null","../audio/M5_01.WAV","l","M5_01","M5","male","2","1.863625","3.755","half an hour, probably fourty five minutes away.","","","","","","","","","","","","","","",""
"","","","","","html-keyboard-response","237","862788","0.0-237.0","","","","","","","","","","","","543","
            <center>
                <div id=""clip1"" class=""visual"">Clip 1<p>Press ""S""</p></div>
                <div id=""clip2"" class=""visual"">Clip 2<p>Press ""L""</p></div>
            </center>
            <p style=""text-align:center"">Which clip sounds more like someone who was born in Boston?</p>","l","","","","","","","","13","F1_01","M5_01","F1","M5","female","male","because of the limited space.","half an hour, probably fourty five minutes away.","short","4","1","","",""
"","","","","","audio-keyboard-response","238","867332","0.0-238.0","","","","","","","","","","","","null","../audio/M4_02.WAV","null","M4_02","M4","male","1","2.538281","2.364","the most intimate group of friends,","","","","","","","","","","","","","","",""
"","","","","","audio-keyboard-response","239","871601","0.0-239.0","","","","","","","","","","","","null","../audio/F3_01.WAV","l","F3_01","F3","female","2","4.267563","1.875","my parents, my two sisters, and my two brothers.","","","","","","","","","","","","","","",""
"","","","","","html-keyboard-response","240","873604","0.0-240.0","","","","","","","","","","","","615","
            <center>
                <div id=""clip1"" class=""visual"">Clip 1<p>Press ""S""</p></div>
                <div id=""clip2"" class=""visual"">Clip 2<p>Press ""L""</p></div>
            </center>
            <p style=""text-align:center"">Which clip sounds more like someone who was born in Boston?</p>","l","","","","","","","","14","M4_02","F3_01","M4","F3","male","female","the most intimate group of friends,","my parents, my two sisters, and my two brothers.","short","4","1","","",""
"","","","","","audio-keyboard-response","241","876608","0.0-241.0","","","","","","","","","","","","null","../audio/M1_02.WAV","null","M1_02","M1","male","1","0.999906","2.000","parallel ways.","","","","","","","","","","","","","","",""
"","","","","","audio-keyboard-response","242","878269","0.0-242.0","","","","","","","","","","","","null","../audio/M3_01.WAV","l","M3_01","M3","male","2","1.659469","2.411","to further my education.","","","","","","","","","","","","","","",""
"","","","","","html-keyboard-response","243","880272","0.0-243.0","","","","","","","","","","","","879","
            <center>
                <div id=""clip1"" class=""visual"">Clip 1<p>Press ""S""</p></div>
                <div id=""clip2"" class=""visual"">Clip 2<p>Press ""L""</p></div>
            </center>
            <p style=""text-align:center"">Which clip sounds more like someone who was born in Boston?</p>","l","","","","","","","","15","M1_02","M3_01","M1","M3","male","male","parallel ways.","to further my education.","short","4","1","","",""
"","","","","","audio-keyboard-response","244","884942","0.0-244.0","","","","","","","","","","","","null","../audio/M2_02.WAV","null","M2_02","M2","male","1","2.665333","3.001","But later on, when I traveled quite a bit,","","","","","","","","","","","","","","",""
